Timestamp,gx,gy,gz,ax,ay,az
2020-12-01 18:38:03.7550,0.02586568519473076,0.04569611698389053,-0.06622056663036346,0.041748046875,-1.0090484619140625,-0.172943115234375
2020-12-01 18:38:03.7650,0.02586568519473076,0.04569611698389053,-0.06622056663036346,0.041748046875,-1.0090484619140625,-0.172943115234375
2020-12-01 18:38:03.7880,0.009505354799330236,0.14600993692874908,0.013851366937160492,0.069305419921875,-1.036285400390625,-0.07037353515625
2020-12-01 18:38:03.8060,-0.02854136377573013,-0.021436583250761032,0.04840721189975738,0.163726806640625,-0.939117431640625,-0.19097900390625
2020-12-01 18:38:03.8370,-0.029636189341545105,-0.0005174521938897669,0.005538842175155878,0.038421630859375,-1.0072021484375,-0.140380859375
2020-12-01 18:38:03.8550,-0.00947712454944849,0.03605014458298683,-0.025289110839366916,0.05633544921875,-0.971435546875,-0.2013702392578125
2020-12-01 18:38:03.8720,-0.00947712454944849,0.03605014458298683,-0.025289110839366916,0.100189208984375,-0.9693603515625,-0.1866455078125
2020-12-01 18:38:03.8880,0.0016389093361794946,0.13732589781284332,-0.03478701040148735,0.100189208984375,-0.9693603515625,-0.1866455078125
2020-12-01 18:38:03.9070,-0.01774304360151291,0.1771468222141266,0.007161240093410016,0.087646484375,-0.996917724609375,-0.1080169677734375
2020-12-01 18:38:03.9380,-0.011950668878853321,-0.1264929622411728,-0.04347264394164085,0.11370849609375,-0.9356231689453124,-0.2455902099609375
2020-12-01 18:38:03.9550,0.04048031568527222,0.09324073046445848,-0.0696461871266365,0.0321502685546875,-1.0164794921875,-0.1838531494140625
2020-12-01 18:38:03.9720,0.04048031568527222,0.09324073046445848,-0.0696461871266365,0.067138671875,-1.056427001953125,-0.04095458984375
2020-12-01 18:38:03.9880,0.024014521390199658,0.21561191976070404,0.024350879713892937,0.067138671875,-1.056427001953125,-0.04095458984375
2020-12-01 18:38:04.0070,-0.0038999330718070273,0.06333956122398376,0.0738672986626625,0.1981201171875,-0.944000244140625,-0.2054595947265625
2020-12-01 18:38:04.0380,0.036861345171928406,0.06641817092895508,0.024645425379276283,0.019317626953125,-0.966796875,-0.1864471435546875
2020-12-01 18:38:04.0550,0.09710471332073213,0.05873388797044754,0.036683179438114166,0.11077880859375,-0.980987548828125,-0.250885009765625
2020-12-01 18:38:04.0720,0.09710471332073213,0.05873388797044754,0.036683179438114166,0.08746337890625,-1.002838134765625,-0.19195556640625
2020-12-01 18:38:04.0880,0.15429769456386566,0.0786181092262268,0.03801529109477997,0.08746337890625,-1.002838134765625,-0.19195556640625
2020-12-01 18:38:04.1070,0.2351507246494293,0.308804988861084,-0.005974801722913981,0.003753662109375,-0.97821044921875,-0.2010498046875
2020-12-01 18:38:04.1370,0.1721845418214798,0.4259167015552521,0.06766612827777863,0.1533050537109375,-0.984344482421875,-0.0751190185546875
2020-12-01 18:38:04.1550,0.09907278418540956,0.1365557163953781,0.1338193118572235,0.21478271484375,-0.8827362060546875,-0.1055755615234375
2020-12-01 18:38:04.1710,0.09907278418540956,0.1365557163953781,0.1338193118572235,0.15380859375,-0.934844970703125,-0.094940185546875
2020-12-01 18:38:04.1880,0.04352137818932533,0.10561724007129668,0.17641524970531464,0.15380859375,-0.934844970703125,-0.094940185546875
2020-12-01 18:38:04.2070,0.04717789962887764,0.1793212890625,0.18646548688411715,0.0855560302734375,-1.057373046875,-0.1201324462890625
2020-12-01 18:38:04.2380,0.04061320796608925,0.34663891792297363,0.21114979684352875,0.0805816650390625,-1.010589599609375,-0.1228179931640625
2020-12-01 18:38:04.2550,0.06190624460577965,0.1740032285451889,0.2261420488357544,0.1062164306640625,-0.9389801025390624,-0.172393798828125
2020-12-01 18:38:04.2710,0.06190624460577965,0.1740032285451889,0.2261420488357544,0.1062164306640625,-0.9389801025390624,-0.172393798828125
2020-12-01 18:38:04.2880,0.10167602449655533,0.08188021928071976,0.2599641978740692,0.137451171875,-0.9205780029296876,-0.1861724853515625
2020-12-01 18:38:04.3060,0.15961815416812894,0.0382070392370224,0.2724088728427887,0.10699462890625,-0.98919677734375,-0.196319580078125
2020-12-01 18:38:04.3380,0.2264283448457718,0.17454278469085693,0.2700123190879822,0.0365447998046875,-0.9779815673828124,-0.1411285400390625
2020-12-01 18:38:04.3550,0.2326457649469376,0.18894729018211365,0.26507267355918884,0.0336151123046875,-0.986663818359375,-0.0951995849609375
2020-12-01 18:38:04.3700,0.2326457649469376,0.18894729018211365,0.26507267355918884,0.0336151123046875,-0.986663818359375,-0.0951995849609375
2020-12-01 18:38:04.3890,0.24094603955745694,0.04781439527869225,0.2768324017524719,0.064788818359375,-0.997222900390625,-0.128875732421875
2020-12-01 18:38:04.4060,0.2598227858543396,0.02551920898258686,0.2660953402519226,0.029296875,-1.025909423828125,-0.11444091796875
2020-12-01 18:38:04.4380,0.2942492067813873,0.2672626078128815,0.2590142488479614,0.0451507568359375,-0.98590087890625,-0.164215087890625
2020-12-01 18:38:04.4550,0.3275246024131775,0.1344829797744751,0.2684588730335236,0.10589599609375,-0.9830474853515624,-0.179595947265625
2020-12-01 18:38:04.4720,0.3275246024131775,0.1344829797744751,0.2684588730335236,0.10589599609375,-0.9830474853515624,-0.179595947265625
2020-12-01 18:38:04.4870,0.3300396800041199,0.13329041004180908,0.3567495942115784,0.1357574462890625,-1.059906005859375,-0.07952880859375
2020-12-01 18:38:04.5060,0.3772226572036743,-0.07333946228027344,0.4603835940361023,0.104705810546875,-1.00360107421875,-0.1010894775390625
2020-12-01 18:38:04.5370,0.4089214503765106,-0.5185310244560242,0.5526371002197266,0.0768585205078125,-1.0707855224609375,-0.1051788330078125
2020-12-01 18:38:04.5560,0.4089214503765106,-0.5185310244560242,0.5526371002197266,0.0015869140625,-1.17010498046875,-0.0888214111328125
2020-12-01 18:38:04.5720,0.4338734149932861,-1.0179903507232666,0.4945418238639832,0.0015869140625,-1.17010498046875,-0.0888214111328125
2020-12-01 18:38:04.5880,0.4110325574874878,-0.8523793220520021,0.3814157843589783,0.0467071533203125,-1.064361572265625,0.0164337158203125
2020-12-01 18:38:04.6060,0.3102196455001831,-1.2550088167190552,0.35189518332481384,0.0556793212890625,-0.9444732666015624,-0.033599853515625
2020-12-01 18:38:04.6390,0.1448328197002411,-2.673569440841675,0.355389803647995,0.1717071533203125,-0.9214324951171876,0.0051422119140625
2020-12-01 18:38:04.6560,0.1448328197002411,-2.673569440841675,0.355389803647995,-0.082794189453125,-0.8562774658203125,-0.0836181640625
2020-12-01 18:38:04.6720,0.16980181634426114,-3.1225059032440186,0.3945553004741669,-0.082794189453125,-0.8562774658203125,-0.0836181640625
2020-12-01 18:38:04.6890,0.2081228345632553,-2.87656831741333,0.19339635968208316,-0.3016815185546875,-0.96417236328125,-0.0890350341796875
2020-12-01 18:38:04.7060,0.2217712700366974,-2.5056724548339844,0.21437540650367734,-0.323394775390625,-0.8884429931640625,-0.107574462890625
2020-12-01 18:38:04.7370,0.7607300877571106,0.122881181538105,0.07523749768733977,-0.5230560302734375,-0.8791961669921875,0.215484619140625
2020-12-01 18:38:04.7570,0.7607300877571106,0.122881181538105,0.07523749768733977,-0.5681915283203125,-0.986480712890625,0.771484375
2020-12-01 18:38:04.7720,0.559933602809906,1.0634167194366455,-0.30076807737350464,-0.5681915283203125,-0.986480712890625,0.771484375
2020-12-01 18:38:04.7880,0.4126187264919281,0.4447993040084839,-0.9414764642715454,-0.210784912109375,-1.269378662109375,0.049835205078125
2020-12-01 18:38:04.8070,0.25779107213020325,-0.5890246629714966,-0.4151343405246735,0.36285400390625,-0.99652099609375,0.1767425537109375
2020-12-01 18:38:04.8380,0.2879635989665985,-0.0519271120429039,-0.6128415465354919,-0.1907806396484375,-0.9753570556640624,0.0727691650390625
2020-12-01 18:38:04.8540,0.2879635989665985,-0.0519271120429039,-0.6128415465354919,-0.1907806396484375,-0.9753570556640624,0.0727691650390625
2020-12-01 18:38:04.8710,0.3808011412620544,0.6900511384010315,-0.6434812545776367,-0.200927734375,-1.06011962890625,0.0279541015625
2020-12-01 18:38:04.8880,0.3729600012302399,0.3591986298561096,-0.5667534470558167,0.01678466796875,-0.987213134765625,0.0255889892578125
2020-12-01 18:38:04.9070,0.4015050828456879,-0.15055009722709656,-0.5076094269752502,0.16522216796875,-0.990142822265625,-0.0430908203125
2020-12-01 18:38:04.9380,0.35913047194480896,-0.2139783352613449,-0.5042333006858826,-0.087158203125,-0.9829864501953124,0.1445770263671875
2020-12-01 18:38:04.9540,0.3327587842941284,-0.27150580286979675,-0.5056807398796082,-0.087158203125,-0.9829864501953124,0.1445770263671875
2020-12-01 18:38:04.9710,0.24001500010490415,0.5454095005989075,-0.5071995854377747,-0.0844573974609375,-0.9662017822265624,0.2677459716796875
2020-12-01 18:38:04.9880,0.12717020511627194,0.767203152179718,-0.41908621788024897,0.102264404296875,-1.07440185546875,0.2540130615234375
2020-12-01 18:38:05.0060,0.09241701662540436,-0.06905975937843323,-0.1908610314130783,0.354522705078125,-1.073394775390625,0.0659332275390625
2020-12-01 18:38:05.0380,0.1159857213497162,-0.114045612514019,-0.17087320983409882,-0.081573486328125,-1.016510009765625,0.1181182861328125
2020-12-01 18:38:05.0540,0.11606188863515855,0.2747572660446167,-0.24757809937000275,-0.081573486328125,-1.016510009765625,0.1181182861328125
2020-12-01 18:38:05.0710,0.13007357716560364,0.362822949886322,-0.27142271399497986,-0.0660552978515625,-1.028228759765625,0.1018218994140625
2020-12-01 18:38:05.0880,0.10563508421182632,-0.1901286542415619,-0.2312537282705307,0.131500244140625,-1.0067901611328125,0.12017822265625
2020-12-01 18:38:05.1060,0.04542926698923111,-0.20410625636577606,-0.2575916051864624,0.0834197998046875,-0.9952850341796876,0.1631927490234375
2020-12-01 18:38:05.1380,-0.01678643748164177,0.2616763412952423,-0.3358384668827057,0.1028594970703125,-0.9876251220703124,0.216644287109375
2020-12-01 18:38:05.1540,-0.049687396734952934,0.30386000871658325,-0.2502034604549408,0.1028594970703125,-0.9876251220703124,0.216644287109375
2020-12-01 18:38:05.1710,-0.1074305847287178,0.03539687395095825,-0.11284026503562927,0.276580810546875,-0.954681396484375,0.17181396484375
2020-12-01 18:38:05.1880,-0.12431608885526654,-0.14814844727516174,-0.06330733001232147,0.1656646728515625,-1.0014801025390625,0.114898681640625
2020-12-01 18:38:05.2070,-0.08804676681756972,-0.017969146370887756,-0.16334392130374908,-0.0133056640625,-1.008209228515625,0.1069793701171875
2020-12-01 18:38:05.2380,-0.045411955565214164,-0.01715608313679695,-0.2411020994186401,0.0788116455078125,-0.9403228759765624,0.125274658203125
2020-12-01 18:38:05.2540,-0.08146370202302933,-0.3209865391254425,-0.29922664165496826,0.0788116455078125,-0.9403228759765624,0.125274658203125
2020-12-01 18:38:05.2710,-0.1458464115858078,-0.30055156350135803,-0.3823447227478027,0.0187530517578125,-0.9631500244140624,0.196136474609375
2020-12-01 18:38:05.2880,-0.1864955723285675,-0.15582208335399628,-0.4952733814716339,-0.000335693359375,-1.010833740234375,0.195068359375
2020-12-01 18:38:05.3070,-0.13695332407951355,-0.2508942782878876,-0.5648418068885803,0.0811920166015625,-1.04925537109375,0.0702056884765625
2020-12-01 18:38:05.3370,-0.11324906349182128,-0.3241330683231354,-0.5872198343276978,0.088226318359375,-0.97076416015625,0.0506744384765625
2020-12-01 18:38:05.3550,-0.1818329095840454,-0.045655369758605964,-0.6849543452262878,0.0498809814453125,-0.92803955078125,0.17669677734375
2020-12-01 18:38:05.3710,-0.2478750497102737,-0.1837967336177826,-0.6896955966949463,0.0927276611328125,-1.1436614990234375,0.2034759521484375
2020-12-01 18:38:05.3880,-0.27044665813446045,-0.07869161665439606,-0.6510187983512878,0.1705780029296875,-1.1410369873046875,0.161834716796875
2020-12-01 18:38:05.4070,-0.1570250391960144,-0.20409055054187772,-0.5396406054496765,0.253997802734375,-1.1009674072265625,-0.0478363037109375
2020-12-01 18:38:05.4370,-0.16077236831188202,-0.431908518075943,-0.4056364595890045,0.30023193359375,-1.0289764404296875,0.0194854736328125
2020-12-01 18:38:05.4550,-0.2989595234394073,-0.2649741470813751,-0.4229027926921845,0.2030487060546875,-0.9440460205078124,0.1556243896484375
2020-12-01 18:38:05.4710,-0.2826468646526337,-0.0013872405979782345,-0.3484059274196625,0.19561767578125,-1.0365753173828125,0.062835693359375
2020-12-01 18:38:05.4880,-0.2342979907989502,0.048288434743881226,-0.2788247168064117,0.1834716796875,-1.0186920166015625,0.0606689453125
2020-12-01 18:38:05.5060,-0.24420787394046786,-0.05379106104373932,-0.2380346655845642,0.23931884765625,-1.049835205078125,0.0229949951171875
2020-12-01 18:38:05.5380,-0.24628300964832306,-0.20147426426410675,-0.18880347907543185,0.2537384033203125,-1.0077972412109375,0.026214599609375
2020-12-01 18:38:05.5550,-0.2218138873577118,-0.17846694588661194,-0.22488903999328613,0.2230377197265625,-0.926116943359375,0.018829345703125
2020-12-01 18:38:05.5710,-0.2081497460603714,-0.06885150074958801,-0.256878674030304,0.194122314453125,-0.9154815673828124,0.032989501953125
2020-12-01 18:38:05.5880,-0.2215651422739029,0.11267594993114473,-0.2737484574317932,0.206634521484375,-0.904815673828125,0.0657196044921875
2020-12-01 18:38:05.6060,-0.2064642310142517,0.16832882165908813,-0.2909868359565735,0.229400634765625,-0.8740386962890625,0.039947509765625
2020-12-01 18:38:05.6380,-0.17795614898204806,0.3323206901550293,-0.32019132375717163,0.2523651123046875,-0.874053955078125,0.0374603271484375
2020-12-01 18:38:05.6550,-0.15407665073871613,0.2878645360469818,-0.3267616033554077,0.2764434814453125,-0.8985443115234375,0.01861572265625
2020-12-01 18:38:05.6720,-0.13437964022159574,0.1485508531332016,-0.295132577419281,0.2936859130859375,-0.9386138916015624,0.02630615234375
2020-12-01 18:38:05.6880,-0.11049508303403854,0.14814259111881256,-0.2566235363483429,0.27423095703125,-0.936248779296875,0.025787353515625
2020-12-01 18:38:05.7060,-0.0997236669063568,0.11883290857076645,-0.2215888500213623,0.29754638671875,-0.943267822265625,0.0550994873046875
2020-12-01 18:38:05.7390,-0.10601058602333067,0.0551370233297348,-0.1679794192314148,0.3482666015625,-0.9350128173828124,0.0892486572265625
2020-12-01 18:38:05.7550,-0.08869631588459015,0.008044344373047352,-0.1207120344042778,0.336639404296875,-0.947906494140625,0.077880859375
2020-12-01 18:38:05.7710,-0.049801643937826164,-0.03367966786026955,-0.08817672729492188,0.2877044677734375,-0.97991943359375,0.0731353759765625
2020-12-01 18:38:05.7880,-0.04811293259263039,-0.1807926893234253,-0.05180833488702774,0.2893524169921875,-0.9700775146484376,0.061004638671875
2020-12-01 18:38:05.8070,-0.030982416123151783,-0.20985841751098636,-0.044738709926605225,0.2727508544921875,-0.983062744140625,0.0190277099609375
2020-12-01 18:38:05.8380,-0.0325654000043869,-0.26320821046829224,-0.014305169694125652,0.295501708984375,-1.00189208984375,0.012176513671875
2020-12-01 18:38:05.8550,-0.05033507570624352,-0.26489052176475525,-0.06255631893873215,0.2952117919921875,-0.932891845703125,-0.009735107421875
2020-12-01 18:38:05.8710,-0.031260982155799866,0.03172064572572708,-0.12895424664020538,0.2417449951171875,-0.9367523193359376,-0.0335540771484375
2020-12-01 18:38:05.8880,-0.07161213457584381,0.24954165518283844,-0.1628589630126953,0.250579833984375,-0.964263916015625,0.0146484375
2020-12-01 18:38:05.9070,-0.07746762782335281,0.4574831426143646,-0.22044022381305692,0.2176513671875,-0.9561614990234376,0.008636474609375
2020-12-01 18:38:05.9380,-0.14544720947742462,0.3798147141933441,-0.3331223130226135,0.23980712890625,-0.997894287109375,0.0247955322265625
2020-12-01 18:38:05.9540,-0.13695146143436432,0.369970053434372,-0.556645929813385,0.133758544921875,-1.0141448974609375,-0.02056884765625
2020-12-01 18:38:05.9720,-0.10769397020339966,0.751132607460022,-0.8764207363128662,0.04168701171875,-1.02984619140625,0.070404052734375
2020-12-01 18:38:05.9880,-0.08628588914871216,0.8958410620689392,-1.1462618112564087,0.09466552734375,-1.062957763671875,0.1008758544921875
2020-12-01 18:38:06.0070,-0.03678091615438461,0.9124522209167479,-1.3051329851150513,0.166656494140625,-1.0689849853515625,0.0839080810546875
2020-12-01 18:38:06.0380,0.02774933911859989,0.8441874384880066,-1.2986689805984497,0.1677703857421875,-1.0771026611328125,0.100067138671875
2020-12-01 18:38:06.0550,0.07575254887342453,0.6801513433456421,-1.18069589138031,0.154052734375,-1.038787841796875,0.13812255859375
2020-12-01 18:38:06.0710,0.09054268151521684,0.21010103821754456,-0.8648895025253296,0.21087646484375,-1.03118896484375,0.1215667724609375
2020-12-01 18:38:06.0880,0.09359706193208693,-0.3118218183517456,-0.4389272928237915,0.2515716552734375,-1.031768798828125,0.1233978271484375
2020-12-01 18:38:06.1070,0.1125185564160347,-0.6059258580207825,0.0379875972867012,0.2017822265625,-0.9427032470703124,0.1256866455078125
2020-12-01 18:38:06.1380,0.14689277112483978,-0.6619779467582703,0.4440765082836151,0.134735107421875,-0.869537353515625,0.0888214111328125
2020-12-01 18:38:06.1550,0.1643649786710739,-0.3723623752593994,0.8141496181488037,0.110198974609375,-0.8237762451171875,0.075958251953125
2020-12-01 18:38:06.1710,0.16874241828918454,0.02883377857506275,1.0967386960983276,0.07421875,-0.8057861328125,0.029327392578125
2020-12-01 18:38:06.1880,0.15928472578525546,0.3485465347766876,1.3274749517440796,0.094024658203125,-0.8114013671875,-0.0350799560546875
2020-12-01 18:38:06.2070,0.13730646669864655,0.698161244392395,1.564344048500061,0.1674041748046875,-0.89703369140625,-0.0241546630859375
2020-12-01 18:38:06.2380,0.07429473847150803,1.1195836067199707,1.7162810564041138,0.2466278076171875,-0.9636993408203124,0.031341552734375
2020-12-01 18:38:06.2550,-0.022907447069883347,1.0554780960083008,1.6642197370529177,0.297515869140625,-0.9548492431640624,0.0642852783203125
2020-12-01 18:38:06.2710,-0.15832465887069702,0.7603479027748108,1.5362838506698608,0.40423583984375,-1.0041656494140625,0.07659912109375
2020-12-01 18:38:06.2880,-0.2590555250644684,0.27669018507003784,1.6009728908538818,0.43829345703125,-1.1140899658203125,0.0668487548828125
2020-12-01 18:38:06.3070,-0.2244722545146942,0.1372164487838745,1.4828428030014038,0.29315185546875,-1.0986785888671875,0.073699951171875
2020-12-01 18:38:06.3380,-0.16550560295581818,0.4784427583217621,1.3096542358398438,0.1596832275390625,-1.1089019775390625,0.1100921630859375
2020-12-01 18:38:06.3550,-0.11000852286815643,0.7680396437644958,1.1329153776168823,0.05047607421875,-1.2179718017578125,0.126190185546875
2020-12-01 18:38:06.3710,-0.07737281918525696,1.0390852689743042,1.0411417484283447,0.0525970458984375,-1.1641693115234375,0.1116943359375
2020-12-01 18:38:06.3880,-0.03968589380383492,1.1827058792114258,1.0355113744735718,0.0709228515625,-1.108154296875,0.1016082763671875
2020-12-01 18:38:06.4070,-0.03968589380383492,1.1827058792114258,1.0355113744735718,0.0606231689453125,-1.1019287109375,0.1050262451171875
2020-12-01 18:38:06.4360,-0.014675881713628769,1.1500391960144043,1.1610647439956665,0.11468505859375,-1.0339202880859375,0.086334228515625
2020-12-01 18:38:06.4550,-0.040947165340185165,0.8720885515213013,1.22408926486969,0.1615753173828125,-1.0335693359375,0.0669097900390625
2020-12-01 18:38:06.4720,-0.10220439732074738,0.6633433699607849,1.2567206621170044,0.163970947265625,-1.01226806640625,0.0792388916015625
2020-12-01 18:38:06.4890,-0.17045189440250394,0.4077587127685547,1.2756624221801758,0.1772308349609375,-1.027191162109375,0.08056640625
2020-12-01 18:38:06.5060,-0.17045189440250394,0.4077587127685547,1.2756624221801758,0.21527099609375,-1.0186309814453125,0.073822021484375
2020-12-01 18:38:06.5390,-0.2151874154806137,-0.12647537887096405,1.2747739553451538,0.195892333984375,-1.0172271728515625,0.0755615234375
2020-12-01 18:38:06.5540,-0.17870555818080902,0.08200272172689438,1.1115248203277588,0.1533660888671875,-0.9806976318359376,0.1059722900390625
2020-12-01 18:38:06.5720,-0.07973024994134903,0.6825218200683594,0.7954838275909424,0.1320648193359375,-0.89556884765625,0.1520843505859375
2020-12-01 18:38:06.5890,-0.14928615093231198,0.5223183035850525,0.6575120687484741,0.2352142333984375,-0.9137115478515624,0.1491851806640625
2020-12-01 18:38:06.6060,-0.14928615093231198,0.5223183035850525,0.6575120687484741,0.1567840576171875,-0.9745941162109376,0.11505126953125
2020-12-01 18:38:06.6380,-0.2033645659685135,0.35041287541389465,0.5255303382873535,0.09967041015625,-0.9169921875,0.1580352783203125
2020-12-01 18:38:06.6550,-0.149602010846138,0.20910342037677765,0.42570337653160095,0.0496978759765625,-0.939544677734375,0.1198577880859375
2020-12-01 18:38:06.6720,-0.0835401639342308,0.3182938098907471,0.28202930092811584,-0.024444580078125,-0.940277099609375,0.11004638671875
2020-12-01 18:38:06.6880,-0.0835401639342308,0.3182938098907471,0.28202930092811584,0.012847900390625,-0.952545166015625,0.1026153564453125
2020-12-01 18:38:06.7070,-0.011797537095844746,0.4083731174468994,0.2129404991865158,0.052154541015625,-0.9516754150390624,0.10003662109375
2020-12-01 18:38:06.7380,0.02544543892145157,0.3239541053771973,0.06406420469284058,0.0317840576171875,-0.9714508056640624,0.0993804931640625
2020-12-01 18:38:06.7550,0.03598596528172493,0.2467072457075119,-0.012860670685768127,0.05865478515625,-0.9942474365234376,0.104095458984375
2020-12-01 18:38:06.7710,0.035653866827487946,-0.07968337833881378,-0.062149126082658775,0.1125030517578125,-0.996429443359375,0.0932769775390625
2020-12-01 18:38:06.7880,0.035653866827487946,-0.07968337833881378,-0.062149126082658775,0.15557861328125,-1.0560302734375,0.090179443359375
2020-12-01 18:38:06.8070,0.09624717384576796,-0.2582150399684906,-0.20727914571762085,0.15557861328125,-1.0560302734375,0.090179443359375
2020-12-01 18:38:06.8380,0.1878769546747208,0.09100314229726793,-0.5520690083503723,0.1271820068359375,-1.00885009765625,0.1233367919921875
2020-12-01 18:38:06.8550,0.18202359974384308,-0.16527017951011658,-0.6729275584220886,0.23382568359375,-0.998016357421875,0.12640380859375
2020-12-01 18:38:06.8720,0.19721293449401853,-0.3100902140140533,-0.7439966797828674,0.211578369140625,-0.99456787109375,0.127410888671875
2020-12-01 18:38:06.8880,0.19721293449401853,-0.3100902140140533,-0.7439966797828674,0.1963348388671875,-0.987274169921875,0.1159210205078125
2020-12-01 18:38:06.9070,0.2257958501577377,-0.5601407885551453,-0.8509747982025146,0.1963348388671875,-0.987274169921875,0.1159210205078125
2020-12-01 18:38:06.9380,0.2837204039096832,-0.8932348489761353,-0.9737313389778136,0.216400146484375,-0.9901123046875,0.1026763916015625
2020-12-01 18:38:06.9550,0.2822655141353607,-0.9469351172447203,-1.0560392141342163,0.2162933349609375,-1.0027618408203125,0.102020263671875
2020-12-01 18:38:06.9720,0.2434150576591492,-0.9890477061271667,-1.1273638010025024,0.21954345703125,-1.01690673828125,0.1024932861328125
2020-12-01 18:38:06.9880,0.2434150576591492,-0.9890477061271667,-1.1273638010025024,0.21954345703125,-1.01690673828125,0.1024932861328125
2020-12-01 18:38:07.0070,0.20737528800964355,-1.011485576629639,-1.166946530342102,0.1829681396484375,-1.0506744384765625,0.095550537109375
2020-12-01 18:38:07.0380,0.13432878255844116,-0.8327683210372925,-1.2191948890686035,0.1564178466796875,-1.0569915771484375,0.0887451171875
2020-12-01 18:38:07.0550,0.12068673968315125,-0.7091593146324158,-1.241495132446289,0.148193359375,-1.0697021484375,0.0897674560546875
2020-12-01 18:38:07.0720,0.13888278603553772,-0.4058753252029419,-1.3016042709350586,0.1459808349609375,-1.1012115478515625,0.0808563232421875
2020-12-01 18:38:07.0880,0.13888278603553772,-0.4058753252029419,-1.3016042709350586,0.1459808349609375,-1.1012115478515625,0.0808563232421875
2020-12-01 18:38:07.1060,0.11478357017040253,-0.2478047460317612,-1.3659251928329468,0.1549835205078125,-1.0885009765625,0.1119232177734375
2020-12-01 18:38:07.1380,0.06344794481992723,-0.3458247780799866,-1.4102463722229004,0.2473907470703125,-1.108612060546875,0.1369476318359375
2020-12-01 18:38:07.1550,0.03070464916527272,-0.7357770800590515,-1.372395396232605,0.2730560302734375,-1.063690185546875,0.1282196044921875
2020-12-01 18:38:07.1720,0.03070464916527272,-0.7357770800590515,-1.372395396232605,0.241455078125,-1.0453643798828125,0.1263427734375
2020-12-01 18:38:07.1880,0.07075433433055878,-0.8331187963485718,-1.373077154159546,0.241455078125,-1.0453643798828125,0.1263427734375
2020-12-01 18:38:07.2060,0.04878538101911545,-1.0299607515335083,-1.3385484218597412,0.2442779541015625,-1.114166259765625,0.1659393310546875
2020-12-01 18:38:07.2370,0.0501214899122715,-0.9992478489875792,-1.4078963994979858,0.1790924072265625,-1.076446533203125,0.1418304443359375
2020-12-01 18:38:07.2550,0.07757255434989929,-0.8776247501373291,-1.4295052289962769,0.1602783203125,-1.0630645751953125,0.12750244140625
2020-12-01 18:38:07.2710,0.07757255434989929,-0.8776247501373291,-1.4295052289962769,0.1756439208984375,-1.0608367919921875,0.1195220947265625
2020-12-01 18:38:07.2880,0.0813923254609108,-0.8267189860343933,-1.3727258443832395,0.1756439208984375,-1.0608367919921875,0.1195220947265625
2020-12-01 18:38:07.3060,0.07574855536222458,-0.8008495569229126,-1.311229228973389,0.1495819091796875,-1.0330963134765625,0.09912109375
2020-12-01 18:38:07.3380,-0.04628786817193031,-0.7294251918792725,-1.0960170030593872,0.1089324951171875,-1.0983123779296875,0.1293792724609375
2020-12-01 18:38:07.3550,-0.07846897840499878,-0.6102486848831177,-1.03341543674469,0.0632171630859375,-1.042144775390625,0.124237060546875
2020-12-01 18:38:07.3710,-0.07846897840499878,-0.6102486848831177,-1.03341543674469,0.0484619140625,-1.0045928955078125,0.1150054931640625
2020-12-01 18:38:07.3880,-0.0917283222079277,-0.444163054227829,-0.9593166708946228,0.0484619140625,-1.0045928955078125,0.1150054931640625
2020-12-01 18:38:07.4070,-0.07777335494756699,-0.3588865101337433,-0.8005453944206238,0.062225341796875,-0.9837799072265624,0.104217529296875
2020-12-01 18:38:07.4380,-0.06158666685223579,-0.32686707377433777,-0.4463266134262085,0.0610504150390625,-0.9817352294921876,0.10675048828125
2020-12-01 18:38:07.4550,-0.061643391847610474,-0.2996271848678589,-0.2933509349822998,0.043365478515625,-0.960723876953125,0.1147918701171875
2020-12-01 18:38:07.4710,-0.061643391847610474,-0.2996271848678589,-0.2933509349822998,0.043365478515625,-0.960723876953125,0.1147918701171875
2020-12-01 18:38:07.4880,-0.03297925367951393,-0.17935191094875336,-0.14972291886806488,0.013397216796875,-0.936676025390625,0.1092376708984375
2020-12-01 18:38:07.5070,-0.004487426485866308,-0.05579562112689018,-0.009386577643454077,0.0206298828125,-0.9406585693359376,0.1038970947265625
2020-12-01 18:38:07.5380,0.07557199150323868,0.12201059609651566,0.29303401708602905,0.06365966796875,-0.943023681640625,0.0795440673828125
2020-12-01 18:38:07.5550,0.09918570518493652,0.13766439259052274,0.4723976254463196,0.0829010009765625,-0.9543914794921876,0.0890350341796875
2020-12-01 18:38:07.5710,0.09918570518493652,0.13766439259052274,0.4723976254463196,0.0829010009765625,-0.9543914794921876,0.0890350341796875
2020-12-01 18:38:07.5880,0.08934532850980759,0.04236982762813568,0.6659162640571594,0.1199798583984375,-0.964385986328125,0.0979461669921875
2020-12-01 18:38:07.6060,0.08879564702510834,-0.044267062097787864,0.8299241065979004,0.1163330078125,-0.9614715576171876,0.08929443359375
2020-12-01 18:38:07.6380,0.1001681461930275,0.22360245883464813,1.0154545307159424,0.11492919921875,-1.015960693359375,0.0838623046875
2020-12-01 18:38:07.6550,0.06842326372861862,0.3039122223854065,1.09818434715271,0.15765380859375,-1.05950927734375,0.110107421875
2020-12-01 18:38:07.6710,0.06842326372861862,0.3039122223854065,1.09818434715271,0.15765380859375,-1.05950927734375,0.110107421875
2020-12-01 18:38:07.6880,0.03898841142654419,0.331002414226532,1.1949478387832642,0.15374755859375,-1.06982421875,0.0968017578125
2020-12-01 18:38:07.7070,0.012650813907384872,0.29632219672203064,1.287745475769043,0.1603240966796875,-1.04876708984375,0.1046905517578125
2020-12-01 18:38:07.7380,0.02141634188592434,0.4879622161388397,1.4418172836303709,0.1317138671875,-1.078582763671875,0.122406005859375
2020-12-01 18:38:07.7550,0.02141634188592434,0.4879622161388397,1.4418172836303709,0.1255035400390625,-1.1099395751953125,0.1114501953125
2020-12-01 18:38:07.7710,0.023956730961799618,0.5980921983718872,1.493307113647461,0.1255035400390625,-1.1099395751953125,0.1114501953125
2020-12-01 18:38:07.7880,0.03261440247297287,0.7424698472023009,1.5730149745941162,0.1315460205078125,-1.097320556640625,0.10931396484375
2020-12-01 18:38:07.8070,0.038104243576526635,0.8046546578407288,1.6655795574188232,0.1574554443359375,-1.0629119873046875,0.099945068359375
2020-12-01 18:38:07.8380,0.03856443613767624,0.7461130619049072,1.9068232774734497,0.186798095703125,-1.104217529296875,0.087860107421875
2020-12-01 18:38:07.8550,0.03856443613767624,0.7461130619049072,1.9068232774734497,0.172149658203125,-1.1110382080078125,0.0995025634765625
2020-12-01 18:38:07.8710,0.030118487775325775,0.7451631426811218,2.001994609832764,0.172149658203125,-1.1110382080078125,0.0995025634765625
2020-12-01 18:38:07.8880,0.00455826660618186,0.8514565229415894,2.023897409439087,0.15472412109375,-1.128082275390625,0.123199462890625
2020-12-01 18:38:07.9070,-0.05573916062712669,0.8656043410301208,2.0268266201019287,0.1771240234375,-1.13262939453125,0.1097412109375
2020-12-01 18:38:07.9380,-0.16785478591918945,0.9500827193260192,1.9364829063415527,0.1699371337890625,-1.126800537109375,0.1110992431640625
2020-12-01 18:38:07.9550,-0.16785478591918945,0.9500827193260192,1.9364829063415527,0.179779052734375,-1.1280975341796875,0.1025848388671875
2020-12-01 18:38:07.9710,-0.19172681868076324,0.9592373371124268,1.8683241605758667,0.179779052734375,-1.1280975341796875,0.1025848388671875
2020-12-01 18:38:07.9880,-0.19431062042713165,1.065474271774292,1.7379658222198486,0.1290435791015625,-1.0965423583984375,0.108367919921875
2020-12-01 18:38:08.0070,-0.1689261645078659,1.1579445600509644,1.5397495031356812,0.124420166015625,-1.0636749267578125,0.1251983642578125
2020-12-01 18:38:08.0370,-0.1718849390745163,0.9727858901023864,1.3228580951690674,0.1104736328125,-1.094879150390625,0.1224822998046875
2020-12-01 18:38:08.0550,-0.1718849390745163,0.9727858901023864,1.3228580951690674,0.1255340576171875,-1.004486083984375,0.1172637939453125
2020-12-01 18:38:08.0710,-0.1551629602909088,0.9247299432754515,1.1630780696868896,0.1255340576171875,-1.004486083984375,0.1172637939453125
2020-12-01 18:38:08.0880,-0.1498723179101944,0.8461259603500366,1.093489408493042,0.1147918701171875,-1.0263671875,0.102935791015625
2020-12-01 18:38:08.1070,-0.13929690420627594,0.7839453816413879,0.9950400590896606,0.0853424072265625,-0.9760589599609376,0.0937652587890625
2020-12-01 18:38:08.1370,-0.09401863813400267,0.8190197944641113,0.8758284449577332,0.0807952880859375,-0.959991455078125,0.102874755859375
2020-12-01 18:38:08.1550,-0.07242972403764725,0.7402176260948181,0.7951139211654663,0.0807952880859375,-0.959991455078125,0.102874755859375
2020-12-01 18:38:08.1710,-0.04525935649871826,0.5767706632614136,0.6736149191856384,0.0637359619140625,-0.9510650634765624,0.0926361083984375
2020-12-01 18:38:08.1880,-0.009247294627130032,0.4825855493545532,0.5334506034851074,0.072052001953125,-0.9233551025390624,0.1025848388671875
2020-12-01 18:38:08.2070,0.04237675294280052,0.2965291440486908,0.3811127245426178,0.0986328125,-0.9174041748046876,0.095458984375
2020-12-01 18:38:08.2380,0.10859625041484833,0.07909721881151201,0.1521349400281906,0.0948486328125,-0.895782470703125,0.1203765869140625
2020-12-01 18:38:08.2550,0.1753278821706772,0.022426478564739227,-0.04313628375530243,0.0948486328125,-0.895782470703125,0.1203765869140625
2020-12-01 18:38:08.2720,0.2128273099660873,-0.001888980157673359,-0.25639182329177856,0.0471954345703125,-0.901153564453125,0.1152191162109375
2020-12-01 18:38:08.2880,0.2568509578704834,-0.11001944541931152,-0.4588107168674469,0.0934906005859375,-0.8946533203125,0.110626220703125
2020-12-01 18:38:08.3070,0.2939317524433136,-0.25775882601737976,-0.5966048240661621,0.1002655029296875,-0.9191131591796876,0.098297119140625
2020-12-01 18:38:08.3380,0.3296458125114441,-0.232578918337822,-0.784077525138855,0.0647125244140625,-0.9381866455078124,0.0993194580078125
2020-12-01 18:38:08.3550,0.3486003279685974,-0.2575156986713409,-0.9581984281539916,0.0647125244140625,-0.9381866455078124,0.0993194580078125
2020-12-01 18:38:08.3710,0.3617504835128784,-0.3473435938358307,-1.083368897438049,0.06707763671875,-0.9702606201171876,0.098358154296875
2020-12-01 18:38:08.3880,0.3731554746627808,-0.38809022307395935,-1.1872907876968384,0.046844482421875,-0.9780426025390624,0.10333251953125
2020-12-01 18:38:08.4070,0.38640096783638,-0.3939305245876312,-1.2509557008743286,0.02978515625,-0.961639404296875,0.1013641357421875
2020-12-01 18:38:08.4380,0.4190374612808228,-0.35918372869491577,-1.260987639427185,0.0712890625,-0.958099365234375,0.0764923095703125
2020-12-01 18:38:08.4550,0.3816128671169281,-0.4803072214126587,-1.1786719560623171,0.0712890625,-0.958099365234375,0.0764923095703125
2020-12-01 18:38:08.4710,0.12153974920511244,-1.531721830368042,-0.5330929160118103,-0.0179443359375,-0.9437713623046876,-0.0003204345703125
2020-12-01 18:38:08.4880,0.10300814360380173,-2.8774983882904053,0.8871050477027893,-1.096527099609375,-1.3250732421875,0.0014495849609375
2020-12-01 18:38:08.5070,0.2979355454444885,1.3853436708450315,-0.2994168102741241,-1.837432861328125,-1.1813201904296875,0.2323760986328125
2020-12-01 18:38:08.5370,0.4005958735942841,3.7963149547576895,-1.654977798461914,-0.3273773193359375,-1.359039306640625,0.4311981201171875
2020-12-01 18:38:08.5550,0.33565017580986023,0.7942675352096558,-1.0654550790786743,0.6958160400390625,-1.18768310546875,-0.2182159423828125
2020-12-01 18:38:08.5710,0.328869491815567,-0.4309617877006531,-0.6063122749328613,0.461883544921875,-0.68255615234375,0.031280517578125
2020-12-01 18:38:08.5880,0.23868927359580994,0.5035496950149536,-0.7862405180931091,-0.034332275390625,-0.9889373779296876,0.272979736328125
2020-12-01 18:38:08.6070,0.172186940908432,-0.31054773926734924,-0.3357689380645752,0.189544677734375,-1.1426239013671875,0.1127777099609375
2020-12-01 18:38:08.6370,0.13432878255844116,-1.7178750038146973,-0.31636860966682434,0.189605712890625,-1.179107666015625,-0.0033416748046875
2020-12-01 18:38:08.6550,0.2704482674598694,-1.0629549026489258,-0.2846847176551819,-0.0369110107421875,-1.0066070556640625,0.014129638671875
2020-12-01 18:38:08.6710,0.32935631275177,0.20142152905464167,-0.4939495325088501,-0.421173095703125,-0.8977508544921875,0.249298095703125
2020-12-01 18:38:08.6880,0.2696138918399811,0.7182492017745972,-0.6899057030677795,-0.45147705078125,-1.00164794921875,0.3066558837890625
2020-12-01 18:38:08.7070,0.12897662818431854,0.2220996469259262,-0.6289600729942322,-0.0385284423828125,-0.980712890625,0.2743377685546875
2020-12-01 18:38:08.7380,0.013029782101511957,-0.597430944442749,-0.5565114617347717,0.1227874755859375,-0.9488372802734376,0.20379638671875
2020-12-01 18:38:08.7550,0.04258740693330765,-0.22273321449756625,-0.5462787747383118,-0.0698394775390625,-0.9518585205078124,0.2002410888671875
2020-12-01 18:38:08.7710,0.05683185905218125,0.7325192093849182,-0.5881010890007019,-0.1501922607421875,-0.95977783203125,0.292938232421875
2020-12-01 18:38:08.7880,0.012007128447294235,0.7365166544914246,-0.5553987622261047,0.0358123779296875,-1.0628509521484375,0.197235107421875
2020-12-01 18:38:08.8070,0.010101902298629284,-0.1189705953001976,-0.4376029074192047,0.219329833984375,-1.060882568359375,0.05419921875
2020-12-01 18:38:08.8380,0.07154501974582672,-0.42425885796546936,-0.42431291937828064,0.1505584716796875,-0.99609375,0.0425567626953125
2020-12-01 18:38:08.8550,0.14484719932079315,0.05002961307764053,-0.4868561923503876,-0.0620269775390625,-1.0002899169921875,0.1352996826171875
2020-12-01 18:38:08.8710,0.1771518737077713,0.2227582484483719,-0.6266210079193115,-0.11248779296875,-0.9512939453125,0.1411590576171875
2020-12-01 18:38:08.8880,0.151619091629982,-0.036000344902276986,-0.6501050591468811,0.0348663330078125,-0.9795074462890624,0.19720458984375
2020-12-01 18:38:08.9070,0.10780582576990128,-0.1721472591161728,-0.6126610040664673,0.0425872802734375,-0.9585113525390624,0.2393035888671875
2020-12-01 18:38:08.9380,0.02110608480870724,-0.12983736395835874,-0.5333190560340881,0.134002685546875,-0.938690185546875,0.283050537109375
2020-12-01 18:38:08.9550,-0.003043460426852107,-0.3157664835453033,-0.4421989917755127,0.1944427490234375,-1.02996826171875,0.2029876708984375
2020-12-01 18:38:08.9710,0.03826429694890976,-0.4116322994232178,-0.3836203515529633,0.2399444580078125,-1.0474853515625,0.0998382568359375
2020-12-01 18:38:08.9880,0.06027372553944588,-0.2944598495960236,-0.41730135679245,0.1322784423828125,-0.988128662109375,0.12969970703125
2020-12-01 18:38:09.0070,0.06500962376594542,-0.19122081995010376,-0.4797836542129517,0.0539398193359375,-1.0003662109375,0.193511962890625
2020-12-01 18:38:09.0370,0.07222386449575424,-0.20973512530326846,-0.5577378273010254,0.09503173828125,-0.97802734375,0.2072296142578125
2020-12-01 18:38:09.0550,0.053398508578538895,-0.15245504677295685,-0.6324900984764099,0.0529632568359375,-0.9644622802734376,0.2380523681640625
2020-12-01 18:38:09.0710,0.021389978006482124,-0.09074721485376358,-0.6681830883026123,0.126556396484375,-0.9953460693359376,0.254119873046875
2020-12-01 18:38:09.0880,-0.02497112937271595,-0.2126353085041046,-0.7205573916435242,0.15740966796875,-0.98779296875,0.2395477294921875
2020-12-01 18:38:09.1070,-0.03647997975349426,-0.2160364240407944,-0.7494934201240541,0.179931640625,-0.984619140625,0.214813232421875
2020-12-01 18:38:09.1370,-0.11157233268022536,-0.011136806569993496,-0.829064667224884,0.1237030029296875,-0.97540283203125,0.2459564208984375
2020-12-01 18:38:09.1550,-0.09738007932901382,-0.18290883302688601,-0.906920850276947,0.0824127197265625,-0.9853973388671876,0.212615966796875
2020-12-01 18:38:09.1710,-0.11822038143873215,-0.21410617232322693,-0.9768877029418944,0.1257781982421875,-1.007537841796875,0.2754974365234375
2020-12-01 18:38:09.1880,-0.16182191669940948,-0.17282822728157046,-1.0943785905838013,0.1493988037109375,-1.05023193359375,0.2224884033203125
2020-12-01 18:38:09.2070,-0.12781202793121338,-0.20517632365226746,-1.2201919555664062,0.131256103515625,-1.0554656982421875,0.140899658203125
2020-12-01 18:38:09.2380,-0.13357244431972504,-0.06204446405172347,-1.335273265838623,0.12823486328125,-1.0328521728515625,0.1880950927734375
2020-12-01 18:38:09.2550,-0.13623294234275818,-0.3148820400238037,-1.3733471632003784,0.2384490966796875,-1.108306884765625,0.1596527099609375
2020-12-01 18:38:09.2710,-0.11389274895191193,-0.37519997358322144,-1.3650610446929932,0.1726837158203125,-1.140594482421875,0.1714324951171875
2020-12-01 18:38:09.2880,-0.05025624483823776,-0.5692349672317505,-1.5390352010726929,0.160308837890625,-1.2866973876953125,0.1522979736328125
2020-12-01 18:38:09.3070,-0.007816644385457039,-0.8563724756240845,-1.6284843683242798,0.031829833984375,-1.332305908203125,0.04901123046875
2020-12-01 18:38:09.3380,0.06341465562582016,-0.7911255359649658,-1.9818572998046875,-0.11590576171875,-1.403594970703125,0.068572998046875
2020-12-01 18:38:09.3550,0.07160015404224396,-1.2598797082901,-2.0943727493286133,-0.110137939453125,-1.53216552734375,0.0410614013671875
2020-12-01 18:38:09.3710,0.062446333467960365,-1.358076572418213,-2.16616439819336,-0.24444580078125,-1.488616943359375,0.1733551025390625
2020-12-01 18:38:09.3880,0.056242235004901886,-1.5657187700271606,-2.2586264610290527,0.0310211181640625,-1.2767791748046875,0.1181793212890625
2020-12-01 18:38:09.4070,-0.00878124125301838,-2.2751708030700684,-2.0602307319641118,0.271453857421875,-1.2624359130859375,0.1417999267578125
2020-12-01 18:38:09.4380,-0.10829903930425644,-2.503690242767334,-1.880787968635559,0.14813232421875,-1.2495880126953125,0.2116546630859375
2020-12-01 18:38:09.4550,0.029289178550243374,-2.0812809467315674,-1.8677033185958865,0.0321807861328125,-1.0975494384765625,0.05767822265625
2020-12-01 18:38:09.4710,0.1939505636692047,-0.6684563755989075,-1.7727446556091309,0.1650848388671875,-0.847930908203125,0.1866607666015625
2020-12-01 18:38:09.4880,0.7005376219749451,-0.5513542294502258,-1.1204347610473633,0.38525390625,-0.85333251953125,-0.07305908203125
2020-12-01 18:38:09.5070,0.5174322128295898,-0.448272317647934,-0.2264094352722168,0.4048919677734375,-0.7130584716796875,0.2673187255859375
2020-12-01 18:38:09.5380,0.4125359058380127,-0.662822961807251,0.4682369828224182,-0.266510009765625,-0.6189422607421875,-0.015533447265625
2020-12-01 18:38:09.5550,0.495261937379837,0.6757832169532776,0.6580482125282288,-0.2906494140625,-0.47137451171875,0.0362548828125
2020-12-01 18:38:09.5710,0.4123281836509705,0.9550511240959167,1.3629717826843262,0.0313262939453125,-0.6016693115234375,0.0264739990234375
2020-12-01 18:38:09.5880,0.26683807373046875,0.9780171513557434,2.0546247959136963,0.269195556640625,-0.6358184814453125,0.0421295166015625
2020-12-01 18:38:09.6070,0.03268178179860115,0.7526854872703552,2.55302357673645,0.3114166259765625,-0.6452178955078125,0.03814697265625
2020-12-01 18:38:09.6380,-0.1363229602575302,0.8143432736396791,3.0033295154571533,0.227813720703125,-0.704345703125,0.03851318359375
2020-12-01 18:38:09.6550,-0.19972749054431915,1.3549433946609497,3.3977985382080083,0.2027435302734375,-0.8112030029296875,0.092742919921875
2020-12-01 18:38:09.6710,-0.2678559422492981,1.8129024505615237,3.7246298789978023,0.259857177734375,-0.868743896484375,0.1727447509765625
2020-12-01 18:38:09.6880,-0.3826525807380676,1.6804461479187012,3.90853214263916,0.3284149169921875,-0.9964752197265624,0.16888427734375
2020-12-01 18:38:09.7070,-0.3826525807380676,1.6804461479187012,3.90853214263916,0.3966217041015625,-1.1873321533203125,0.2110443115234375
2020-12-01 18:38:09.7380,-0.5330644249916077,1.4358475208282468,4.143490791320802,0.504669189453125,-1.2756805419921875,0.2965545654296875
2020-12-01 18:38:09.7550,-0.5570707321166992,1.021484136581421,4.0774593353271475,0.511993408203125,-1.385009765625,0.2699737548828125
2020-12-01 18:38:09.7720,-0.4255603551864624,0.9985913634300232,3.977900505065918,0.39312744140625,-1.382476806640625,0.275848388671875
2020-12-01 18:38:09.7880,-0.2706144452095032,1.291955590248108,3.7717268466949454,0.2821807861328125,-1.360443115234375,0.3153533935546875
2020-12-01 18:38:09.8070,-0.2706144452095032,1.291955590248108,3.7717268466949454,0.3779754638671875,-1.38238525390625,0.3498687744140625
2020-12-01 18:38:09.8380,-0.09892658144235612,1.1554158926010132,2.9037718772888184,0.469085693359375,-1.2734832763671875,0.2524871826171875
2020-12-01 18:38:09.8550,0.12972816824913025,1.111810564994812,2.429565906524658,0.6451568603515625,-1.1079559326171875,0.307373046875
2020-12-01 18:38:09.8710,0.2085649222135544,0.3549218773841858,1.977560043334961,0.680267333984375,-0.9398345947265624,0.260772705078125
2020-12-01 18:38:09.8880,0.2085649222135544,0.3549218773841858,1.977560043334961,0.6070404052734375,-0.9006195068359375,0.2036285400390625
2020-12-01 18:38:09.9070,0.3094073832035065,-0.13147999346256256,1.403286695480347,0.6121826171875,-0.9256744384765624,0.2199554443359375
2020-12-01 18:38:09.9370,0.3566726446151733,-0.9121220111846924,0.665814220905304,0.6193695068359375,-0.867706298828125,0.1534576416015625
2020-12-01 18:38:09.9550,0.38629496097564703,-0.7799842357635498,0.2098855823278427,0.6389617919921875,-0.8646392822265625,0.1216888427734375
2020-12-01 18:38:09.9710,0.340269148349762,-0.5719282031059265,-0.2463948577642441,0.6569976806640625,-0.8095550537109375,0.088531494140625
2020-12-01 18:38:09.9880,0.340269148349762,-0.5719282031059265,-0.2463948577642441,0.5262908935546875,-0.902435302734375,0.01580810546875
2020-12-01 18:38:10.0070,0.2307173609733581,0.6512342095375061,-1.2720679044723509,0.6016082763671875,-1.2626800537109375,0.37615966796875
2020-12-01 18:38:10.0380,-0.3762015998363495,-0.6636304259300232,-1.3438382148742676,-0.654998779296875,-1.4442291259765625,0.1790924072265625
2020-12-01 18:38:10.0540,0.6989316940307617,4.202673435211182,-3.3181638717651367,-0.5502777099609375,-2.163543701171875,-0.04681396484375
2020-12-01 18:38:10.0720,0.3888159096240997,0.4444666802883148,-1.9147526025772093,0.587310791015625,-1.1059112548828125,0.113525390625
2020-12-01 18:38:10.0880,0.3888159096240997,0.4444666802883148,-1.9147526025772093,0.98138427734375,-0.5887298583984375,-0.1951904296875
2020-12-01 18:38:10.1070,0.4643080234527588,-0.6842219829559326,-1.3731991052627563,0.98138427734375,-0.5887298583984375,-0.1951904296875
2020-12-01 18:38:10.1380,0.4827181696891785,-0.6836568713188171,-1.1722955703735352,-0.191680908203125,-1.323455810546875,0.2238311767578125
2020-12-01 18:38:10.1550,0.3842240869998932,0.009828662499785423,-0.9162158370018004,-0.1160125732421875,-1.0414276123046875,0.333160400390625
2020-12-01 18:38:10.1720,0.2229585200548172,-0.2806321978569031,-0.68284672498703,0.142578125,-0.9199676513671876,0.28375244140625
2020-12-01 18:38:10.1880,0.2229585200548172,-0.2806321978569031,-0.68284672498703,0.1223907470703125,-1.0404815673828125,0.2059478759765625
2020-12-01 18:38:10.2070,0.2053305208683014,-0.4597923755645752,-0.5135235190391539,0.1223907470703125,-1.0404815673828125,0.2059478759765625
2020-12-01 18:38:10.2380,0.01887302286922932,-0.36890852451324463,-0.4773529767990112,-0.00714111328125,-1.063446044921875,0.26397705078125
2020-12-01 18:38:10.2550,0.011168764904141426,-0.31231689453125,-0.4613684117794037,0.03265380859375,-0.9958953857421876,0.2041015625
2020-12-01 18:38:10.2720,0.008803078904747963,0.009037969633936882,-0.5026013255119324,-0.0144500732421875,-0.923492431640625,0.196075439453125
2020-12-01 18:38:10.2880,0.008803078904747963,0.009037969633936882,-0.5026013255119324,-0.0144500732421875,-0.923492431640625,0.196075439453125
2020-12-01 18:38:10.3070,-0.02527206763625145,0.05632585659623146,-0.4776667058467865,-0.00799560546875,-0.9901123046875,0.2416534423828125
2020-12-01 18:38:10.3380,0.0027635621372610326,-0.23254482448101044,-0.517865002155304,0.0689544677734375,-0.95318603515625,0.150390625
2020-12-01 18:38:10.3550,-0.002380599733442068,-0.15302523970603946,-0.6325489282608032,-0.008270263671875,-0.9731292724609376,0.1915740966796875
2020-12-01 18:38:10.3720,-0.024173246696591374,-0.02316603995859623,-0.8239061236381531,-0.0267333984375,-0.9219512939453124,0.2306671142578125
2020-12-01 18:38:10.3880,-0.024173246696591374,-0.02316603995859623,-0.8239061236381531,-0.0267333984375,-0.9219512939453124,0.2306671142578125
2020-12-01 18:38:10.4070,-0.016740897670388222,-0.13569578528404236,-0.9701102375984192,-0.0330810546875,-1.00262451171875,0.2079925537109375
2020-12-01 18:38:10.4380,-0.03561471775174141,0.4985304474830627,-1.0502420663833618,0.0883026123046875,-0.9435577392578124,0.3034515380859375
2020-12-01 18:38:10.4550,-0.03759770840406418,0.2894307374954224,-0.8970344066619873,0.33953857421875,-0.9430084228515624,0.1575164794921875
2020-12-01 18:38:10.4720,-0.03759770840406418,0.2894307374954224,-0.8970344066619873,0.486572265625,-1.0280303955078125,0.1329498291015625
2020-12-01 18:38:10.4880,-0.04271071031689644,-0.17130357027053833,-0.6949742436408997,0.486572265625,-1.0280303955078125,0.1329498291015625
2020-12-01 18:38:10.5070,-0.09909036755561827,-0.11694978922605515,-0.6510611176490784,0.290374755859375,-1.0355377197265625,0.164825439453125
2020-12-01 18:38:10.5380,-0.12553875148296356,0.05918902158737184,-0.7525640726089478,0.1240081787109375,-1.0318756103515625,0.30853271484375
2020-12-01 18:38:10.5550,-0.11850453913211825,0.06703256070613861,-0.9122767448425292,0.127410888671875,-1.018402099609375,0.262969970703125
2020-12-01 18:38:10.5720,-0.11850453913211825,0.06703256070613861,-0.9122767448425292,0.0869903564453125,-1.0376739501953125,0.2029571533203125
2020-12-01 18:38:10.5880,-0.10284435749053956,-0.03325143083930016,-1.1204118728637695,0.0869903564453125,-1.0376739501953125,0.2029571533203125
2020-12-01 18:38:10.6070,-0.023816915228962898,-0.18957072496414185,-1.324885368347168,0.1305084228515625,-1.1307220458984375,0.043365478515625
2020-12-01 18:38:10.6380,0.11866912245750427,-0.25699132680892944,-1.9867503643035889,0.03466796875,-1.15606689453125,0.130157470703125
2020-12-01 18:38:10.6550,0.1385115385055542,-0.6001324057579039,-2.15903115272522,0.1158599853515625,-1.1813812255859375,0.1721954345703125
2020-12-01 18:38:10.6710,0.1385115385055542,-0.6001324057579039,-2.15903115272522,-0.0982666015625,-1.3712158203125,0.2408447265625
2020-12-01 18:38:10.6880,0.05414019897580147,-0.4892727434635162,-2.4910449981689453,-0.0982666015625,-1.3712158203125,0.2408447265625
2020-12-01 18:38:10.7070,0.0769224762916565,-1.10589599609375,-2.604907989501953,-0.124542236328125,-1.655364990234375,0.156646728515625
2020-12-01 18:38:10.7380,0.011770905926823616,-2.6883249282836914,-2.789641857147217,-0.367340087890625,-1.9741363525390625,0.1412506103515625
2020-12-01 18:38:10.7550,-0.4107987284660339,-2.726975440979004,-2.86545729637146,-0.464752197265625,-1.8204498291015625,0.3047943115234375
2020-12-01 18:38:10.7720,-0.4107987284660339,-2.726975440979004,-2.86545729637146,-0.271697998046875,-1.7499237060546875,0.408203125
2020-12-01 18:38:10.7880,-0.3006698191165924,-2.6599884033203125,-2.8065085411071777,-0.271697998046875,-1.7499237060546875,0.408203125
2020-12-01 18:38:10.8070,0.3346293866634369,-0.909017026424408,-2.8994417190551762,-0.084381103515625,-1.422882080078125,0.174468994140625
2020-12-01 18:38:10.8380,1.101044535636902,0.9695916771888732,-1.1013659238815308,0.597137451171875,-0.96014404296875,0.3567657470703125
2020-12-01 18:38:10.8550,0.7475735545158386,-0.5641376972198486,0.04946741834282875,0.429229736328125,-0.7584381103515625,0.22607421875
2020-12-01 18:38:10.8720,0.7475735545158386,-0.5641376972198486,0.04946741834282875,0.429229736328125,-0.7584381103515625,0.22607421875
2020-12-01 18:38:10.8880,0.370078444480896,-1.3476366996765137,0.9699490666389464,-0.2146759033203125,-0.45648193359375,-0.077362060546875
2020-12-01 18:38:10.9070,0.3318828642368317,-0.4732362627983093,1.281541109085083,-0.32562255859375,-0.395538330078125,-0.0799560546875
2020-12-01 18:38:10.9380,0.1851821094751358,0.7082967162132263,2.621327638626098,0.21807861328125,-0.5562744140625,0.006805419921875
2020-12-01 18:38:10.9550,0.10242144763469696,1.0756597518920898,3.042271375656128,0.2494659423828125,-0.456939697265625,-0.0379791259765625
2020-12-01 18:38:10.9710,0.10242144763469696,1.0756597518920898,3.042271375656128,0.2494659423828125,-0.456939697265625,-0.0379791259765625
2020-12-01 18:38:10.9880,-0.02106400579214096,1.5616992712020874,3.525797843933105,0.1226806640625,-0.588043212890625,0.014007568359375
2020-12-01 18:38:11.0070,-0.17314063012599945,2.125415086746216,3.771107196807861,0.0808868408203125,-0.6553955078125,0.041748046875
2020-12-01 18:38:11.0370,-0.5501211881637573,2.0106363296508794,4.500409126281738,0.4005279541015625,-0.8327789306640625,0.138641357421875
2020-12-01 18:38:11.0550,-0.5501211881637573,2.0106363296508794,4.500409126281738,0.42095947265625,-0.969757080078125,0.1968231201171875
2020-12-01 18:38:11.0710,-0.6569022536277771,1.9051269292831419,4.784964561462402,0.42095947265625,-0.969757080078125,0.1968231201171875
2020-12-01 18:38:11.0880,-0.7349656224250793,1.9823524951934812,4.955141544342041,0.355377197265625,-1.0690155029296875,0.2619171142578125
2020-12-01 18:38:11.1070,-0.8106385469436646,1.5943045616149902,5.056715965270996,0.4478302001953125,-1.3418121337890625,0.355224609375
2020-12-01 18:38:11.1380,-0.4178390502929688,0.2499706894159317,4.746205806732178,0.540130615234375,-1.5716552734375,0.5773773193359375
2020-12-01 18:38:11.1550,-0.4178390502929688,0.2499706894159317,4.746205806732178,0.8206939697265625,-1.34619140625,0.5773162841796875
2020-12-01 18:38:11.1710,0.1382358968257904,0.23256853222846985,4.133447170257568,0.8206939697265625,-1.34619140625,0.5773162841796875
2020-12-01 18:38:11.1880,0.4537107646465302,-1.1994829177856443,3.213735342025757,1.053741455078125,-1.137786865234375,0.4652252197265625
2020-12-01 18:38:11.2070,0.4981094002723694,-2.1053342819213867,2.2801663875579834,1.19781494140625,-1.143280029296875,0.24456787109375
2020-12-01 18:38:11.2380,0.3638850152492523,-0.4551584720611572,-0.4254173338413239,0.941253662109375,-1.0134429931640625,0.285491943359375
2020-12-01 18:38:11.2550,0.3638850152492523,-0.4551584720611572,-0.4254173338413239,0.9685211181640624,-1.056182861328125,-0.15289306640625
2020-12-01 18:38:11.2720,0.5755311846733093,1.6736931800842283,-2.2159435749053955,0.9685211181640624,-1.056182861328125,-0.15289306640625
2020-12-01 18:38:11.2880,1.55585515499115,2.4929485321044917,-3.871770858764648,1.2803192138671875,-0.972808837890625,0.632049560546875
2020-12-01 18:38:11.3070,-0.8201878070831299,-2.903650999069214,-2.654748916625977,0.5081024169921875,-1.633575439453125,0.33685302734375
2020-12-01 18:38:11.3380,0.8893985748291016,3.1628875732421875,-2.14658522605896,0.1724853515625,-0.8326873779296875,0.0307769775390625
2020-12-01 18:38:11.3550,0.8893985748291016,3.1628875732421875,-2.14658522605896,0.1724853515625,-0.8326873779296875,0.0307769775390625
2020-12-01 18:38:11.3720,0.5405516624450684,2.283930778503418,-2.299459218978882,0.396728515625,-0.226348876953125,0.2311553955078125
2020-12-01 18:38:11.3880,0.2366852462291717,-0.5192484855651855,-1.8366622924804688,0.93182373046875,-0.994598388671875,0.1399688720703125
2020-12-01 18:38:11.4070,0.28794869780540466,-1.6164181232452393,-0.4822393357753754,0.7952423095703125,-1.9228515625,0.1631011962890625
2020-12-01 18:38:11.4380,0.22149138152599332,-0.8706025481224059,-0.46485289931297297,-0.3980255126953125,-0.9330902099609376,0.3511505126953125
2020-12-01 18:38:11.4550,0.10716772824525833,-0.16347867250442505,-1.0336641073226929,-0.3980255126953125,-0.9330902099609376,0.3511505126953125
2020-12-01 18:38:11.4720,0.057079531252384186,-0.03494893014431,-0.782964289188385,-0.269012451171875,-1.3226165771484375,0.4241790771484375
2020-12-01 18:38:11.4880,-0.021911690011620518,-0.2593900263309479,-0.5256038904190063,0.2655792236328125,-1.0064544677734375,0.3253326416015625
2020-12-01 18:38:11.5070,-0.141421839594841,-0.725124180316925,-0.3794045746326447,0.2042083740234375,-0.998565673828125,0.270751953125
2020-12-01 18:38:11.5380,-0.16383980214595795,-0.5386136770248413,-0.4352681040763855,-0.0931243896484375,-0.93231201171875,0.1709442138671875
2020-12-01 18:38:11.5550,-0.1185772493481636,-0.3219972252845764,-0.6569024920463562,-0.0931243896484375,-0.93231201171875,0.1709442138671875
2020-12-01 18:38:11.5720,-0.0831737145781517,-0.33238112926483154,-0.8297467231750488,0.0217132568359375,-0.9746856689453124,0.164520263671875
2020-12-01 18:38:11.5880,-0.042210835963487625,-0.5123940706253052,-0.8813989758491516,0.074310302734375,-0.949371337890625,0.1513519287109375
2020-12-01 18:38:11.6060,-0.08962708711624147,-0.41670987010002136,-1.0674780607223509,0.066314697265625,-0.896331787109375,0.2100677490234375
2020-12-01 18:38:11.6380,-0.03969494998455048,-0.11072038859128952,-1.21834397315979,0.1790008544921875,-0.8508758544921875,0.2681732177734375
2020-12-01 18:38:11.6550,-0.036367062479257584,-0.14799052476882935,-1.2427403926849363,0.1790008544921875,-0.8508758544921875,0.2681732177734375
2020-12-01 18:38:11.6720,-0.026734141632914543,-0.2865241765975952,-1.20786714553833,0.3531646728515625,-0.8426361083984375,0.221099853515625
2020-12-01 18:38:11.6880,-0.033797379583120346,-0.4606259167194367,-1.0779078006744385,0.3717193603515625,-0.917144775390625,0.179901123046875
2020-12-01 18:38:11.7070,0.020672254264354702,-0.15649479627609253,-1.219555139541626,0.1592254638671875,-0.9326934814453124,0.2147216796875
2020-12-01 18:38:11.7380,-0.025892050936818126,0.01864851824939251,-1.441088080406189,0.2410736083984375,-1.04144287109375,0.2913970947265625
2020-12-01 18:38:11.7550,-0.05960820242762565,-0.05893602222204208,-1.5157223939895632,0.2410736083984375,-1.04144287109375,0.2913970947265625
2020-12-01 18:38:11.7720,-0.014285728335380552,-0.3397253453731537,-1.6425541639328003,0.2530975341796875,-1.2388153076171875,0.18975830078125
2020-12-01 18:38:11.7880,0.0024293356109410524,-0.5684447884559631,-1.861714482307434,0.0675201416015625,-1.234222412109375,0.046478271484375
2020-12-01 18:38:11.8070,0.07428248971700667,-0.6910407543182373,-2.405378818511963,-0.2752838134765625,-1.3248138427734375,0.0379486083984375
2020-12-01 18:38:11.8380,0.11279205977916718,-1.076456904411316,-2.77886962890625,-0.37164306640625,-1.4394378662109375,0.092041015625
2020-12-01 18:38:11.8550,0.006673881784081459,-1.800607681274414,-2.7928569316864014,-0.4453125,-1.6421661376953125,0.0946502685546875
2020-12-01 18:38:11.8720,-0.07417675852775574,-2.2260866165161133,-2.8909616470336914,-0.510955810546875,-2.035125732421875,0.1171875
2020-12-01 18:38:11.8880,-0.4167628586292267,-2.0610997676849365,-3.3120229244232178,-0.5265960693359375,-1.9858245849609373,0.133270263671875
2020-12-01 18:38:11.9060,-0.34290754795074463,-2.6695146560668945,-3.0805542469024663,-0.0426177978515625,-1.9748992919921875,0.2369232177734375
2020-12-01 18:38:11.9380,0.28185778856277466,-1.3583385944366455,-2.5506982803344727,-0.0960693359375,-1.9113922119140625,0.4197845458984375
2020-12-01 18:38:11.9550,0.4137428402900696,-1.1720765829086304,-1.9937201738357544,-0.0654144287109375,-1.2889556884765625,0.3513641357421875
2020-12-01 18:38:11.9720,0.8738757967948914,-0.6729528307914734,-1.2032805681228638,0.3425140380859375,-1.2120819091796875,0.38299560546875
2020-12-01 18:38:11.9880,0.5711479187011719,-1.5363746881484983,-0.11790266633033752,0.8064117431640625,-1.137237548828125,0.3526763916015625
2020-12-01 18:38:12.0070,0.3037668168544769,-2.480344295501709,1.2817435264587402,0.1425628662109375,-0.7549896240234375,0.0012664794921875
2020-12-01 18:38:12.0380,0.3296972215175629,-0.5420912504196167,1.83993935585022,-0.3597564697265625,-0.426788330078125,0.0295867919921875
2020-12-01 18:38:12.0550,0.472851425409317,1.6013033390045166,2.0265204906463623,-0.3841552734375,-0.3030242919921875,-0.0013580322265625
2020-12-01 18:38:12.0720,0.4513040781021118,3.183415174484253,2.6979830265045166,0.0290069580078125,-0.477691650390625,0.102935791015625
2020-12-01 18:38:12.0880,0.2815086543560028,3.3301901817321777,3.446112871170044,0.2174224853515625,-0.5624542236328125,0.0780181884765625
2020-12-01 18:38:12.1070,0.08034570515155792,2.99185848236084,3.896172761917114,0.196685791015625,-0.6030426025390625,0.0399017333984375
2020-12-01 18:38:12.1380,-0.23783279955387115,2.4117090702056885,4.321312427520752,0.2039794921875,-0.6526031494140625,0.0598602294921875
2020-12-01 18:38:12.1550,-0.6489537358283997,1.6453166007995603,4.734316349029541,0.291015625,-0.7611083984375,0.106536865234375
2020-12-01 18:38:12.1720,-0.8518738746643066,1.0293186902999878,5.212845325469972,0.34918212890625,-0.8164215087890625,0.14874267578125
2020-12-01 18:38:12.1880,-0.826071560382843,0.9098048210144044,5.570457458496094,0.31671142578125,-0.9142913818359376,0.201995849609375
2020-12-01 18:38:12.2070,-0.7257130146026611,0.9644778966903688,6.0144476890563965,0.4073028564453125,-1.2065887451171875,0.3446044921875
2020-12-01 18:38:12.2380,-0.4858822822570801,0.5169776082038879,6.213245391845702,0.571044921875,-1.37255859375,0.3876495361328125
2020-12-01 18:38:12.2550,-0.08273376524448395,-0.2699609100818634,5.271922111511231,0.5456390380859375,-1.284027099609375,0.289276123046875
2020-12-01 18:38:12.2710,0.34520265460014343,0.09015332907438277,4.240158081054688,0.8341827392578125,-1.589691162109375,0.7715301513671875
2020-12-01 18:38:12.2880,0.7878365516662598,-0.6852100491523743,3.0542871952056885,1.3178863525390625,-1.4127349853515625,0.5559234619140625
2020-12-01 18:38:12.3070,0.6114844083786011,-0.6829423308372498,1.5095369815826416,1.605438232421875,-1.105010986328125,0.1002960205078125
2020-12-01 18:38:12.3380,0.3134031891822815,-0.4501141607761383,0.22654259204864505,1.6994171142578125,-1.0588226318359375,-0.073028564453125
2020-12-01 18:38:12.3550,0.29503563046455383,1.99950110912323,-1.4869898557662964,1.3397064208984375,-0.718902587890625,-0.0050201416015625
2020-12-01 18:38:12.3720,2.432958602905273,3.980599164962769,-4.723224639892578,1.111328125,-0.867340087890625,0.8234100341796875
2020-12-01 18:38:12.3890,-1.7999134063720703,1.8070274591445925,-4.754351139068604,0.7222900390625,-1.4532318115234375,3.164031982421875
2020-12-01 18:38:12.4050,0.6719818711280823,-3.5237641334533687,-3.3910105228424072,0.51763916015625,-4.087158203125,-3.4782867431640625
2020-12-01 18:38:12.4380,0.9363173842430116,2.4072916507720947,-2.4298207759857178,0.9460601806640624,-0.7527313232421875,0.4527740478515625
2020-12-01 18:38:12.4550,0.6090002059936523,-0.5914151072502136,-1.9915869235992432,-0.359283447265625,-0.1744384765625,-0.85302734375
2020-12-01 18:38:12.4720,0.5015587210655212,0.5196058750152588,-1.553006887435913,-0.1427764892578125,-0.99322509765625,0.2976531982421875
2020-12-01 18:38:12.4880,0.5798593759536743,0.11040933430194856,-1.1140607595443726,0.2859039306640625,-2.200347900390625,0.3979644775390625
2020-12-01 18:38:12.5050,0.19336067140102384,-0.8386890888214111,-0.15616802871227264,1.06854248046875,-0.94964599609375,0.601715087890625
2020-12-01 18:38:12.5370,-0.21589048206806186,-0.7741018533706665,-0.4477695226669312,0.7811737060546875,-0.5126495361328125,0.7178955078125
2020-12-01 18:38:12.5550,-0.3070741891860962,-0.8148369789123535,-0.6132021546363831,0.409912109375,-1.194427490234375,0.491455078125
2020-12-01 18:38:12.5720,-0.30024877190589905,-1.115889310836792,0.0957624763250351,0.02294921875,-1.2528076171875,0.2037353515625
2020-12-01 18:38:12.5880,-0.2675427496433258,-0.8530624508857727,-0.2454899251461029,-0.189056396484375,-1.187896728515625,0.069793701171875
2020-12-01 18:38:12.6070,-0.22038190066814425,-0.3567602634429932,-0.5460585355758667,-0.2085113525390625,-1.13385009765625,0.06146240234375
2020-12-01 18:38:12.6380,-0.2185310125350952,-0.15401913225650787,-0.7953410744667053,-0.109619140625,-0.938385009765625,0.0854949951171875
2020-12-01 18:38:12.6550,-0.21453014016151428,-0.2069257497787476,-0.9661852717399596,0.05694580078125,-0.7793731689453125,0.247467041015625
2020-12-01 18:38:12.6720,-0.2181115597486496,-0.399739146232605,-0.98268461227417,0.176544189453125,-0.7800445556640625,0.3329010009765625
2020-12-01 18:38:12.6880,-0.2316574603319168,-0.6151531934738159,-1.0763514041900637,0.2206573486328125,-0.8200531005859375,0.2094879150390625
2020-12-01 18:38:12.7070,-0.16662812232971191,-0.5232096910476685,-1.2768992185592651,0.0687713623046875,-0.8245849609375,0.1535491943359375
2020-12-01 18:38:12.7380,-0.12483487278223038,0.041748512536287315,-1.5203919410705566,0.0202484130859375,-0.794036865234375,0.3006591796875
2020-12-01 18:38:12.7550,-0.0397290363907814,0.19211991131305692,-1.6772263050079346,0.108489990234375,-0.8538818359375,0.2073822021484375
2020-12-01 18:38:12.7710,-0.006658701691776514,-0.11261416226625445,-1.836097240447998,0.1424713134765625,-0.8863372802734375,0.12237548828125
2020-12-01 18:38:12.7880,0.011932559311389923,0.27682387828826904,-2.0657413005828857,0.2077178955078125,-0.9327545166015624,0.199737548828125
2020-12-01 18:38:12.8070,0.020616594702005383,0.22974637150764465,-2.3226633071899414,0.090179443359375,-1.068603515625,0.1116485595703125
2020-12-01 18:38:12.8380,0.046246323734521866,0.016830911859869957,-2.531801700592041,0.03314208984375,-1.3110504150390625,0.0264129638671875
2020-12-01 18:38:12.8550,0.1588812619447708,-0.4544617831707001,-2.751547813415528,-0.0117034912109375,-1.4300537109375,-0.009796142578125
2020-12-01 18:38:12.8720,0.2510308921337128,-1.3173671960830688,-2.902154922485352,-0.0518035888671875,-1.3692474365234375,-0.0073089599609375
2020-12-01 18:38:12.8890,0.15352937579154968,-2.4730074405670166,-2.6608147621154785,-0.2769775390625,-1.5236968994140625,-0.0645599365234375
2020-12-01 18:38:12.9070,-0.1505490243434906,-2.243755578994751,-2.9057726860046387,-0.6703338623046875,-1.86541748046875,0.002777099609375
2020-12-01 18:38:12.9380,-0.5647757649421692,-2.4215664863586426,-3.225453615188598,-0.4140777587890625,-2.1898345947265625,-0.1177520751953125
2020-12-01 18:38:12.9560,-0.2522591352462769,-2.268884420394897,-2.922842741012573,-0.2559051513671875,-2.280136108398437,0.5198822021484375
2020-12-01 18:38:12.9700,0.12701892852783206,-1.0954247713088991,-2.514477014541626,-0.4402923583984375,-2.104827880859375,0.670379638671875
2020-12-01 18:38:12.9890,0.364131361246109,-0.4802180230617523,-2.4052894115448,-0.0079498291015625,-1.6554718017578125,0.46710205078125
2020-12-01 18:38:13.0070,0.364131361246109,-0.4802180230617523,-2.4052894115448,0.4792633056640625,-1.480316162109375,0.311004638671875
2020-12-01 18:38:13.0380,0.7002853751182556,-0.5857729315757751,-0.13017797470092773,0.795196533203125,-1.13714599609375,0.6407318115234375
2020-12-01 18:38:13.0550,0.4949823021888733,-2.2313861846923833,1.2502624988555908,0.2470550537109375,-0.8328094482421875,0.0377655029296875
2020-12-01 18:38:13.0720,0.3787736892700195,-0.9266114830970764,2.0822558403015137,-0.28662109375,-0.4823760986328125,0.1118927001953125
2020-12-01 18:38:13.0880,0.4210521578788757,0.7431737184524536,2.257969617843628,-0.4384002685546875,-0.273834228515625,-0.0062713623046875
2020-12-01 18:38:13.1070,0.4210521578788757,0.7431737184524536,2.257969617843628,0.00189208984375,-0.4473724365234375,0.0519561767578125
2020-12-01 18:38:13.1380,0.23263058066368106,2.556914091110229,3.6024353504180913,0.3128814697265625,-0.599578857421875,0.0592498779296875
2020-12-01 18:38:13.1550,0.06390468031167984,2.5479516983032227,4.0432491302490225,0.2624053955078125,-0.662841796875,-0.008636474609375
2020-12-01 18:38:13.1720,-0.16519108414649966,2.836172819137573,4.344158172607422,0.1060638427734375,-0.6858978271484375,0.0615081787109375
2020-12-01 18:38:13.1890,-0.4829525351524353,2.8864400386810303,4.677886962890625,0.1755523681640625,-0.793701171875,0.1493682861328125
2020-12-01 18:38:13.2070,-0.4829525351524353,2.8864400386810303,4.677886962890625,0.3564910888671875,-0.910400390625,0.1463775634765625
2020-12-01 18:38:13.2380,-0.9863325953483582,2.117815971374512,5.215192794799805,0.4611663818359375,-0.9877471923828124,0.158111572265625
2020-12-01 18:38:13.2550,-1.0131540298461914,1.6158926486968994,5.578899383544922,0.536834716796875,-1.178466796875,0.2413330078125
2020-12-01 18:38:13.2720,-0.8818299174308777,1.2673027515411377,5.827479839324951,0.560943603515625,-1.288787841796875,0.3784027099609375
2020-12-01 18:38:13.2880,-0.8818299174308777,1.2673027515411377,5.827479839324951,0.5257720947265625,-1.4763946533203125,0.4155120849609375
2020-12-01 18:38:13.3070,-0.5102469921112059,1.1127527952194214,5.569273948669434,0.74365234375,-1.63018798828125,0.8369293212890625
2020-12-01 18:38:13.3380,0.4646912515163422,0.5104811191558838,3.5928730964660645,1.432403564453125,-1.3828277587890625,0.6873779296875
2020-12-01 18:38:13.3550,0.7468087077140808,-1.3164069652557373,2.278647422790528,1.6672210693359375,-1.048828125,0.3141021728515625
2020-12-01 18:38:13.3720,0.5498026609420776,-0.939787983894348,0.93382066488266,1.6811676025390625,-1.0086212158203125,0.4966278076171875
2020-12-01 18:38:13.3880,0.5498026609420776,-0.939787983894348,0.93382066488266,1.4749755859375,-0.93499755859375,0.28076171875
2020-12-01 18:38:13.4070,0.4649935066699982,-0.054715976119041436,-0.8679037094116211,1.4749755859375,-0.93499755859375,0.28076171875
2020-12-01 18:38:13.4380,1.6787283420562744,1.7089613676071167,-4.080457687377931,1.3453521728515625,-0.77679443359375,1.4796295166015625
2020-12-01 18:38:13.4550,-0.056182846426963806,0.2460118979215622,-4.671408176422119,0.497833251953125,-2.94598388671875,0.43157958984375
2020-12-01 18:38:13.4720,0.7010372281074524,-2.0797693729400635,-3.684932231903076,0.36199951171875,-2.83831787109375,-0.9170684814453124
2020-12-01 18:38:13.4880,0.7010372281074524,-2.0797693729400635,-3.684932231903076,0.6945343017578125,-0.465179443359375,-0.15887451171875
2020-12-01 18:38:13.5070,1.2674622535705566,-0.2361137270927429,-1.3842637538909912,0.6945343017578125,-0.465179443359375,-0.15887451171875
2020-12-01 18:38:13.5380,0.43032848834991455,0.3754207491874695,-1.6029713153839111,-0.15887451171875,-1.1267547607421875,0.4041900634765625
2020-12-01 18:38:13.5550,0.693757176399231,0.493507444858551,-1.2425779104232788,0.3258209228515625,-2.132064819335937,0.466888427734375
2020-12-01 18:38:13.5710,0.2553079426288605,-0.3936154842376709,-0.2695726156234741,1.181610107421875,-0.8502655029296875,0.603668212890625
2020-12-01 18:38:13.5880,0.2553079426288605,-0.3936154842376709,-0.2695726156234741,0.7216033935546875,-0.5218505859375,0.4853973388671875
2020-12-01 18:38:13.6070,-0.1875866800546646,-1.3524807691574097,-0.6404380202293396,0.7216033935546875,-0.5218505859375,0.4853973388671875
2020-12-01 18:38:13.6380,-0.13968253135681152,0.20974843204021454,-0.2664031982421875,-0.3058624267578125,-1.20892333984375,0.5230560302734375
2020-12-01 18:38:13.6550,-0.14916764199733734,-0.17047825455665588,-0.3963585197925568,-0.2706451416015625,-1.01983642578125,0.1911773681640625
2020-12-01 18:38:13.6720,-0.07199189811944963,-0.09110087901353836,-0.5526096224784851,-0.0510406494140625,-1.0826568603515625,0.1530303955078125
2020-12-01 18:38:13.6880,-0.07199189811944963,-0.09110087901353836,-0.5526096224784851,-0.0510406494140625,-1.0826568603515625,0.1530303955078125
2020-12-01 18:38:13.7060,-0.010663297027349472,-0.2509419322013855,-0.8269757032394409,-0.0271759033203125,-0.9610137939453124,0.0674896240234375
2020-12-01 18:38:13.7380,0.09838569164276124,-0.350390762090683,-1.1387343406677246,0.0574493408203125,-0.7352752685546875,0.3215484619140625
2020-12-01 18:38:13.7550,0.030361101031303406,-0.2931282818317413,-1.3370234966278076,0.0759429931640625,-0.76092529296875,0.3976287841796875
2020-12-01 18:38:13.7720,0.030361101031303406,-0.2931282818317413,-1.3370234966278076,0.20751953125,-0.816009521484375,0.2963714599609375
2020-12-01 18:38:13.7880,0.046618368476629264,-0.5989180207252502,-1.3870816230773926,0.20751953125,-0.816009521484375,0.2963714599609375
2020-12-01 18:38:13.8070,0.08209167420864105,-0.6997445225715637,-1.4195103645324707,0.210968017578125,-0.862335205078125,0.2335662841796875
2020-12-01 18:38:13.8380,-0.017613880336284637,0.4619119763374329,-1.8400049209594729,-0.0236968994140625,-1.0583038330078125,0.38629150390625
2020-12-01 18:38:13.8550,0.03605440631508827,0.34047794342041016,-1.8428446054458616,0.299591064453125,-1.0605926513671875,0.1839141845703125
2020-12-01 18:38:13.8720,0.03605440631508827,0.34047794342041016,-1.8428446054458616,0.2812042236328125,-1.1137847900390625,0.0768280029296875
2020-12-01 18:38:13.8880,0.06715933233499527,-0.09772975742816924,-1.9505494832992556,0.2812042236328125,-1.1137847900390625,0.0768280029296875
2020-12-01 18:38:13.9070,0.09379440546035768,-0.1299729198217392,-2.316646814346313,0.0057525634765625,-1.357696533203125,0.0568695068359375
2020-12-01 18:38:13.9370,0.2927384078502655,-1.2273790836334229,-2.894108533859253,-0.2170562744140625,-1.47662353515625,0.06549072265625
2020-12-01 18:38:13.9550,0.15574778616428375,-2.7390153408050537,-2.6826250553131104,-0.1908721923828125,-1.5062408447265625,-0.094573974609375
2020-12-01 18:38:13.9720,0.15574778616428375,-2.7390153408050537,-2.6826250553131104,-0.6592559814453125,-1.854705810546875,0.1115875244140625
2020-12-01 18:38:13.9880,-0.09160954505205154,-3.0125019550323486,-2.8885390758514404,-0.6592559814453125,-1.854705810546875,0.1115875244140625
2020-12-01 18:38:14.0060,-0.5492681860923767,-2.9515480995178223,-3.158887386322021,-0.581146240234375,-2.0595703125,-0.1083831787109375
2020-12-01 18:38:14.0380,-0.04499916732311249,-0.32416635751724243,-2.713672161102295,-0.84869384765625,-2.337753295898437,0.803924560546875
2020-12-01 18:38:14.0550,0.19314709305763245,0.570020318031311,-2.5880906581878658,-0.3310394287109375,-1.7170562744140625,0.567474365234375
2020-12-01 18:38:14.0710,0.19314709305763245,0.570020318031311,-2.5880906581878658,-0.3310394287109375,-1.7170562744140625,0.567474365234375
2020-12-01 18:38:14.0890,0.5997263193130493,-0.044085703790187836,-1.3455437421798706,0.3157958984375,-1.5043792724609375,0.2947235107421875
2020-12-01 18:38:14.1070,0.6215029358863831,-0.3492797017097473,-0.26294562220573425,0.748504638671875,-1.144287109375,0.5905914306640625
2020-12-01 18:38:14.1380,0.15734301507472992,-1.1725698709487915,2.0904994010925293,-0.2718048095703125,-0.5399169921875,0.1070709228515625
2020-12-01 18:38:14.1550,0.13505981862545013,0.8900779485702515,2.425060272216797,-0.3475799560546875,-0.346710205078125,0.1397247314453125
2020-12-01 18:38:14.1720,0.13505981862545013,0.8900779485702515,2.425060272216797,-0.3475799560546875,-0.346710205078125,0.1397247314453125
2020-12-01 18:38:14.1880,0.07307660579681396,1.880723237991333,3.1830823421478267,0.0619049072265625,-0.469512939453125,0.174713134765625
2020-12-01 18:38:14.2070,0.028683843091130257,1.3546158075332642,4.0019617080688485,0.4154510498046875,-0.5648345947265625,0.1418304443359375
2020-12-01 18:38:14.2380,0.09407589584589003,0.6440636515617371,4.820586681365967,0.24395751953125,-0.658111572265625,0.052490234375
2020-12-01 18:38:14.2550,-0.05412209033966065,1.0250262022018433,4.919707298278809,0.0997772216796875,-0.794952392578125,0.13671875
2020-12-01 18:38:14.2720,-0.05412209033966065,1.0250262022018433,4.919707298278809,0.0997772216796875,-0.794952392578125,0.13671875
2020-12-01 18:38:14.2880,-0.16389678418636322,1.1712092161178589,5.253557205200195,0.32275390625,-0.9781341552734376,0.1337738037109375
2020-12-01 18:38:14.3070,-0.20924456417560575,1.5261383056640625,5.625184059143066,0.47943115234375,-1.10113525390625,0.1721649169921875
2020-12-01 18:38:14.3380,-0.1052747592329979,2.144232988357544,6.01151704788208,0.4281463623046875,-1.3694000244140625,0.2522430419921875
2020-12-01 18:38:14.3550,-0.1052747592329979,2.144232988357544,6.01151704788208,0.4907989501953125,-1.658966064453125,0.36541748046875
2020-12-01 18:38:14.3720,0.02104243449866772,2.497437000274658,5.563058376312256,0.4907989501953125,-1.658966064453125,0.36541748046875
2020-12-01 18:38:14.3890,-0.0018367822049185636,1.8864871263504028,4.816066265106201,1.1095123291015625,-1.832122802734375,0.7146148681640625
2020-12-01 18:38:14.4070,0.4167729914188385,0.3180956840515137,3.524391889572144,1.7230224609375,-1.5575103759765625,0.503265380859375
2020-12-01 18:38:14.4380,0.0896310806274414,0.408408522605896,0.1557760089635849,1.7702178955078125,-0.88458251953125,0.265350341796875
2020-12-01 18:38:14.4550,0.0896310806274414,0.408408522605896,0.1557760089635849,1.6977996826171875,-0.760711669921875,0.0277557373046875
2020-12-01 18:38:14.4720,0.093724362552166,1.2934709787368774,-1.4344432353973389,1.6977996826171875,-0.760711669921875,0.0277557373046875
2020-12-01 18:38:14.4880,0.9610877037048341,2.3961548805236816,-2.584955930709839,1.5830841064453125,-0.59173583984375,0.0161590576171875
2020-12-01 18:38:14.5070,2.217609405517578,0.7761748433113098,-4.062450885772705,1.12030029296875,-0.55535888671875,2.31121826171875
2020-12-01 18:38:14.5380,0.490405410528183,-3.487370014190674,-3.5122315883636475,0.390533447265625,-2.5628662109375,-0.9467926025390624
2020-12-01 18:38:14.5550,0.490405410528183,-3.487370014190674,-3.5122315883636475,0.367279052734375,-0.3631134033203125,-0.763885498046875
2020-12-01 18:38:14.5720,1.3341238498687744,0.43280574679374695,-1.4074630737304688,0.367279052734375,-0.3631134033203125,-0.763885498046875
2020-12-01 18:38:14.5890,1.0141154527664185,-0.4288219213485718,-1.815178394317627,-0.68475341796875,0.0142364501953125,-0.526458740234375
2020-12-01 18:38:14.6060,0.2567606866359711,1.8409804105758667,-1.373905897140503,-0.5423431396484375,-1.0563812255859375,0.789703369140625
2020-12-01 18:38:14.6380,0.1197868511080742,-0.8793787360191345,0.4312464594841003,1.262420654296875,-1.038116455078125,0.6219635009765625
2020-12-01 18:38:14.6560,0.1197868511080742,-0.8793787360191345,0.4312464594841003,0.724853515625,-0.5083160400390625,0.41510009765625
2020-12-01 18:38:14.6710,-0.11129669845104218,-1.3507177829742432,-0.056583650410175323,0.724853515625,-0.5083160400390625,0.41510009765625
2020-12-01 18:38:14.6860,-0.03796549141407013,-0.21650753915309906,-0.6933934092521667,0.5371551513671875,-1.0870208740234375,0.3914947509765625
2020-12-01 18:38:14.7200,-0.2196284979581833,-2.0004992485046387,0.07922078669071198,-0.0677642822265625,-1.0561676025390625,0.258087158203125
2020-12-01 18:38:14.7380,-0.198263019323349,-0.7311682105064392,-0.4111670255661011,-0.3893890380859375,-1.0886077880859375,0.2435455322265625
2020-12-01 18:38:14.7550,-0.198263019323349,-0.7311682105064392,-0.4111670255661011,-0.3893890380859375,-1.0886077880859375,0.2435455322265625
2020-12-01 18:38:14.7720,-0.21444785594940186,0.2209654003381729,-0.7270906567573547,-0.3885650634765625,-0.92645263671875,0.16656494140625
2020-12-01 18:38:14.7880,-0.17172834277153015,0.21200786530971527,-1.0809046030044556,-0.1358795166015625,-0.82421875,0.1856842041015625
2020-12-01 18:38:14.8070,-0.13279426097869873,-0.3746588230133057,-1.1599481105804443,0.1615447998046875,-0.7933197021484375,0.220062255859375
2020-12-01 18:38:14.8380,-0.18507212400436399,-0.7119811773300171,-1.3184870481491089,0.0552520751953125,-0.7890167236328125,0.08074951171875
2020-12-01 18:38:14.8550,-0.024807345122098926,-0.8930037021636963,-1.6759551763534546,0.0552520751953125,-0.7890167236328125,0.08074951171875
2020-12-01 18:38:14.8720,0.09797822684049606,0.036873329430818565,-1.7607190608978271,-0.1873016357421875,-0.8592529296875,0.2752838134765625
2020-12-01 18:38:14.8880,-0.07027948647737503,1.149141788482666,-1.9634605646133425,-0.218109130859375,-1.0051727294921875,0.524200439453125
2020-12-01 18:38:14.9070,-0.023311713710427284,0.4450714588165283,-2.003100872039795,0.4231719970703125,-0.9744873046875,0.1808624267578125
2020-12-01 18:38:14.9380,0.07600715011358261,-0.4585393369197846,-1.857695698738098,0.061614990234375,-1.1219940185546875,-0.07049560546875
2020-12-01 18:38:14.9550,0.061658304184675224,-0.2140451818704605,-2.1532917022705083,0.061614990234375,-1.1219940185546875,-0.07049560546875
2020-12-01 18:38:14.9720,0.0011100055417045949,0.7245036363601685,-2.6111981868743896,-0.261383056640625,-1.3289794921875,0.19207763671875
2020-12-01 18:38:14.9880,0.056489109992980964,0.26996809244155884,-2.7053098678588867,0.097198486328125,-1.3943634033203125,0.238677978515625
2020-12-01 18:38:15.0050,0.1694902330636978,-0.9582053422927856,-2.5073466300964355,0.323944091796875,-1.4306640625,0.1615753173828125
2020-12-01 18:38:15.0380,0.2567702829837799,-2.1404891014099117,-2.471618890762329,-0.4461669921875,-1.6222686767578125,0.005615234375
2020-12-01 18:38:15.0550,0.09685224294662476,-2.639585018157959,-2.474745512008667,-0.4461669921875,-1.6222686767578125,0.005615234375
2020-12-01 18:38:15.0720,-0.004136155359447002,-2.873506784439087,-2.7844388484954834,-0.812225341796875,-1.8548431396484373,-0.0795440673828125
2020-12-01 18:38:15.0880,-0.43766334652900696,-2.693493366241455,-3.2597596645355225,-0.597137451171875,-1.84814453125,0.0686798095703125
2020-12-01 18:38:15.1070,-0.3190072774887085,-2.6168742179870605,-3.028355598449707,-0.2049407958984375,-2.2292633056640625,0.6610107421875
2020-12-01 18:38:15.1380,0.15810468792915344,-1.0653986930847168,-3.045953750610352,-0.507476806640625,-2.214080810546875,0.53485107421875
2020-12-01 18:38:15.1550,0.41132467985153204,-0.7046628594398499,-2.4499447345733643,-0.1138458251953125,-1.6091461181640625,0.350555419921875
2020-12-01 18:38:15.1720,0.9843011498451232,0.30384671688079834,-1.5945397615432741,0.4134979248046875,-1.4083099365234375,0.4783477783203125
2020-12-01 18:38:15.1880,0.8354551792144775,-0.8159587383270264,-0.3747618794441223,0.7029571533203125,-1.275909423828125,0.32861328125
2020-12-01 18:38:15.2070,0.5782183408737183,-2.0179481506347656,0.9611183404922484,0.20330810546875,-0.910064697265625,0.06781005859375
2020-12-01 18:38:15.2380,0.42126229405403137,-0.6417126059532166,1.5816282033920288,-0.3413238525390625,-0.4738311767578125,-0.0269927978515625
2020-12-01 18:38:15.2550,0.31128624081611633,1.856761455535889,1.9417877197265625,-0.3865966796875,-0.283538818359375,0.0256500244140625
2020-12-01 18:38:15.2720,0.11576494574546815,3.424069166183472,2.761568546295166,0.0332183837890625,-0.5112152099609375,0.0902099609375
2020-12-01 18:38:15.2880,-0.11740119755268096,3.1733527183532715,3.579987049102783,0.3146820068359375,-0.6475982666015625,0.0579376220703125
2020-12-01 18:38:15.3070,-0.19865183532238007,2.4823951721191406,4.0027427673339835,0.3626708984375,-0.6024932861328125,-0.0798187255859375
2020-12-01 18:38:15.3380,-0.4050486981868744,1.8975619077682493,4.453938961029053,0.3409881591796875,-0.5985107421875,0.0550537109375
2020-12-01 18:38:15.3550,-0.6719970107078552,0.8900380134582521,4.914784908294678,0.28338623046875,-0.6623382568359375,0.079559326171875
2020-12-01 18:38:15.3720,-0.7480353116989136,0.2310374826192856,5.3198561668396,0.326629638671875,-0.7361602783203125,0.1094207763671875
2020-12-01 18:38:15.3880,-0.6240801215171814,0.1053466647863388,5.703211784362793,0.3625946044921875,-0.8368072509765625,0.1115875244140625
2020-12-01 18:38:15.4070,-0.3890247046947479,0.4378004968166351,6.159751892089844,0.3867645263671875,-1.0238494873046875,0.1602325439453125
2020-12-01 18:38:15.4380,-0.09163963794708252,1.7047868967056274,6.533236980438232,0.4170379638671875,-1.3241119384765625,0.280914306640625
2020-12-01 18:38:15.4550,0.11068762838840483,2.6236402988433842,6.347902297973633,0.4152069091796875,-1.5955352783203125,0.340911865234375
2020-12-01 18:38:15.4720,-0.2830229103565216,2.175154447555542,5.538912773132324,0.7828826904296875,-2.0943145751953125,0.6041412353515625
2020-12-01 18:38:15.4890,0.1149500235915184,0.225496768951416,4.244455814361571,1.5970001220703125,-1.97509765625,0.4633331298828125
2020-12-01 18:38:15.5070,0.6839879155158997,-0.04576189443469048,1.8195505142211916,2.129501342773437,-1.14788818359375,0.6691741943359375
2020-12-01 18:38:15.5380,0.25990214943885803,-0.4516268372535706,0.6766279935836792,2.156646728515625,-0.7983856201171875,0.262969970703125
2020-12-01 18:38:15.5550,0.141665518283844,0.6722255349159241,-1.252413272857666,1.7174224853515625,-1.06292724609375,0.2651824951171875
2020-12-01 18:38:15.5720,1.2909401655197144,2.0300004482269287,-2.982531309127808,1.841217041015625,-0.821685791015625,0.1607666015625
2020-12-01 18:38:15.5880,-0.11119656264781952,-0.2705843448638916,-3.500666379928589,1.2009735107421875,-0.6790313720703125,2.11993408203125
2020-12-01 18:38:15.6050,0.12690947949886322,-1.789479374885559,-4.546792984008789,-0.1280059814453125,-3.8050384521484375,-1.6850433349609375
2020-12-01 18:38:15.6380,0.6842079162597656,0.044487837702035904,-4.012823581695557,0.3340606689453125,-2.47845458984375,0.1029205322265625
2020-12-01 18:38:15.6550,1.2221989631652832,-1.004799485206604,-1.8103628158569336,0.632049560546875,-0.328704833984375,-1.048431396484375
2020-12-01 18:38:15.6720,1.0180662870407104,-0.06716146320104599,-1.5482130050659182,0.3200225830078125,0.198638916015625,-0.0546875
2020-12-01 18:38:15.6880,0.4460224807262421,-0.3265275061130524,-1.7795870304107666,-0.270355224609375,-1.02667236328125,0.3688812255859375
2020-12-01 18:38:15.7070,0.5081303119659424,0.21411362290382385,-1.30291485786438,0.4643096923828125,-2.202011108398437,0.8078460693359375
2020-12-01 18:38:15.7380,0.4484089314937592,-1.2477415800094604,-0.4701422154903412,1.120086669921875,-1.063568115234375,0.4132843017578125
2020-12-01 18:38:15.7550,-0.008190551772713661,-1.9623403549194336,-0.5758808851242065,0.5399169921875,-0.3768463134765625,0.57598876953125
2020-12-01 18:38:15.7720,-0.2067883312702179,-1.3702582120895386,-0.6775622367858887,-0.3985443115234375,-1.1155242919921875,0.339263916015625
2020-12-01 18:38:15.7880,-0.3182807564735413,0.9904077649116516,-0.4662915468215942,-0.126495361328125,-1.3751373291015625,0.608734130859375
2020-12-01 18:38:15.8060,-0.16796477138996124,-0.15729933977127075,-0.8281658887863159,0.0096893310546875,-0.9365692138671876,-0.042327880859375
2020-12-01 18:38:15.8380,-0.12438426911830902,-0.6713895797729492,-0.7517735958099365,0.1548004150390625,-0.9588775634765624,0.0990447998046875
2020-12-01 18:38:15.8560,-0.08792133629322052,-0.5720893144607544,-0.8687888979911804,0.0184478759765625,-1.0208740234375,0.1415252685546875
2020-12-01 18:38:15.8720,-0.10042354464530943,-0.09067397564649582,-1.2480182647705078,-0.1078948974609375,-0.9078521728515624,0.2825164794921875
2020-12-01 18:38:15.8880,-0.07395678013563156,-0.1052398681640625,-1.3791069984436035,0.0737762451171875,-0.850860595703125,0.135162353515625
2020-12-01 18:38:15.9060,-0.05248264968395233,-0.2276185154914856,-1.5231627225875854,0.203887939453125,-0.844696044921875,0.22491455078125
2020-12-01 18:38:15.9380,-0.03121757321059704,-0.07702687382698059,-1.5966638326644895,0.1791839599609375,-0.8698272705078125,0.306396484375
2020-12-01 18:38:15.9550,-0.09390146285295486,0.011745605617761612,-1.5970466136932373,0.1511688232421875,-0.9586334228515624,0.2715301513671875
2020-12-01 18:38:15.9720,-0.08398757874965668,-0.05192098766565323,-1.5958905220031738,0.242218017578125,-1.121795654296875,0.1633758544921875
2020-12-01 18:38:15.9890,-0.0923006385564804,-0.3879141807556152,-1.7034302949905396,0.374786376953125,-0.9943084716796876,0.05584716796875
2020-12-01 18:38:16.0060,-0.15976117551326752,0.2311088442802429,-1.9503090381622317,0.130645751953125,-0.9412994384765624,0.24346923828125
2020-12-01 18:38:16.0380,-0.043614324182271964,0.32958295941352844,-2.1778841018676762,-0.005401611328125,-1.251220703125,0.253326416015625
2020-12-01 18:38:16.0550,0.07595495134592056,-0.3604053258895874,-2.3143649101257324,0.206146240234375,-1.4255218505859375,0.041900634765625
2020-12-01 18:38:16.0720,0.1757097691297531,-1.157007098197937,-2.5887691974639893,0.14569091796875,-1.463409423828125,-0.0707855224609375
2020-12-01 18:38:16.0880,0.1536359041929245,-1.7482744455337524,-2.7763028144836426,-0.2281646728515625,-1.504730224609375,0.05841064453125
2020-12-01 18:38:16.1070,0.0742926076054573,-2.575465202331543,-2.649440288543701,-0.5666656494140625,-1.7462158203125,-0.07501220703125
2020-12-01 18:38:16.1380,-0.09075919538736343,-2.9276514053344727,-2.992234230041504,-0.80609130859375,-2.0710906982421875,-0.03863525390625
2020-12-01 18:38:16.1550,-0.5807999968528748,-2.8695485591888428,-3.2415010929107666,-0.32098388671875,-2.114852905273437,0.1235198974609375
2020-12-01 18:38:16.1720,-0.07748892903327942,-1.872270941734314,-3.068064451217652,-0.43218994140625,-2.5331573486328125,0.7444000244140625
2020-12-01 18:38:16.1870,0.3072550296783447,-0.13005439937114716,-3.1076653003692627,-0.4603729248046875,-1.9521942138671875,0.7716827392578125
2020-12-01 18:38:16.2070,0.7375059723854065,0.08408238738775252,-2.1237537860870357,0.0395965576171875,-1.5508270263671875,0.4254302978515625
2020-12-01 18:38:16.2380,0.8890449404716492,-0.10000409185886383,-1.0554038286209106,0.652862548828125,-1.3981781005859375,0.5493011474609375
2020-12-01 18:38:16.2550,0.6423528790473938,-2.0112168788909908,0.6476618647575378,0.577178955078125,-1.2366180419921875,0.16510009765625
2020-12-01 18:38:16.2720,0.4274706542491913,-2.0070927143096924,1.6599059104919434,-0.086212158203125,-0.730926513671875,-0.0081939697265625
2020-12-01 18:38:16.2880,0.28736412525177,0.0400153249502182,2.1219823360443115,-0.4036865234375,-0.3600921630859375,0.00018310546875
2020-12-01 18:38:16.3060,0.28736412525177,0.0400153249502182,2.1219823360443115,-0.158843994140625,-0.3983612060546875,0.10107421875
2020-12-01 18:38:16.3380,-0.015559785068035126,2.928727388381958,3.786584854125977,0.2442169189453125,-0.5432281494140625,0.136688232421875
2020-12-01 18:38:16.3550,0.009221727959811687,2.1051394939422607,4.369208335876465,0.42303466796875,-0.54254150390625,-0.04718017578125
2020-12-01 18:38:16.3720,-0.0425860770046711,1.8898179531097408,4.7648348808288565,0.344970703125,-0.5002593994140625,0.0603485107421875
2020-12-01 18:38:16.3880,-0.2175307273864746,1.7057621479034424,5.116179943084717,0.2066650390625,-0.6158905029296875,0.045074462890625
2020-12-01 18:38:16.4070,-0.2175307273864746,1.7057621479034424,5.116179943084717,0.2805023193359375,-0.773834228515625,0.0210418701171875
2020-12-01 18:38:16.4380,-0.5055872797966003,1.3378421068191528,5.615225791931152,0.4609832763671875,-0.9187164306640624,0.0430755615234375
2020-12-01 18:38:16.4550,-0.6057274341583252,1.2058324813842771,6.1286940574646,0.575347900390625,-1.0655670166015625,0.1533203125
2020-12-01 18:38:16.4720,-0.4543661773204804,1.2741122245788574,6.497628211975098,0.5529937744140625,-1.228302001953125,0.2286376953125
2020-12-01 18:38:16.4890,-0.4411140084266663,1.6518874168395996,6.164572238922119,0.5641632080078125,-1.5767974853515625,0.3645477294921875
2020-12-01 18:38:16.5060,-0.4411140084266663,1.6518874168395996,6.164572238922119,0.5641632080078125,-1.5767974853515625,0.3645477294921875
2020-12-01 18:38:16.5380,0.0021869877818971872,0.4193274974822998,4.3026180267333975,1.4310455322265625,-1.749542236328125,0.725799560546875
2020-12-01 18:38:16.5600,0.4656944572925568,0.2694477140903473,2.47052264213562,1.5583343505859375,-1.0836944580078125,0.490386962890625
2020-12-01 18:38:16.5730,0.3772665858268738,-0.07178977131843567,0.8355188369750977,1.542144775390625,-0.8182830810546875,0.253204345703125
2020-12-01 18:38:16.5890,0.3772665858268738,-0.07178977131843567,0.8355188369750977,1.626800537109375,-1.11138916015625,0.3220672607421875
2020-12-01 18:38:16.6200,0.4248301088809967,0.37673768401145935,-1.7678451538085938,1.5474090576171875,-0.8145751953125,0.083831787109375
2020-12-01 18:38:16.6370,2.6642892360687256,2.179534912109375,-3.4473876953125,1.2812652587890625,-0.7779083251953125,0.291290283203125
2020-12-01 18:38:16.6540,-3.983732461929321,4.796519756317139,-6.362991809844972,1.1495361328125,-0.78472900390625,4.0294036865234375
2020-12-01 18:38:16.6720,1.7996801137924194,-6.349565029144287,-3.840678215026856,0.840576171875,-5.6031341552734375,-6.575439453125
2020-12-01 18:38:16.6900,0.3048115670681,1.921592712402344,-3.1731171607971187,0.7572479248046875,-1.020660400390625,1.6392669677734375
2020-12-01 18:38:16.7070,0.3048115670681,1.921592712402344,-3.1731171607971187,0.7572479248046875,-1.020660400390625,1.6392669677734375
2020-12-01 18:38:16.7260,1.31809663772583,-1.0110571384429932,-1.8082953691482544,-0.3233489990234375,-0.066436767578125,-2.011337280273437
2020-12-01 18:38:16.7530,0.4337141513824463,0.3421112596988678,-1.8846980333328247,0.133209228515625,-1.535888671875,0.2320709228515625
2020-12-01 18:38:16.7730,0.3995053172111511,-0.12513688206672668,-0.5069897174835205,1.5363311767578125,-2.000640869140625,0.7119903564453125
2020-12-01 18:38:16.7900,0.3995053172111511,-0.12513688206672668,-0.5069897174835205,1.0101470947265625,-0.7015533447265625,0.428314208984375
2020-12-01 18:38:16.8070,0.014216486364603044,-1.4282593727111816,-0.2588949501514435,1.0101470947265625,-0.7015533447265625,0.428314208984375
2020-12-01 18:38:16.8390,0.011712316423654556,-0.1221189871430397,-0.11613326519727707,-0.2322540283203125,-1.3223724365234375,0.15167236328125
2020-12-01 18:38:16.8570,-0.0526869148015976,-0.027881165966391563,-0.2179640233516693,0.0494842529296875,-1.2599945068359375,0.305023193359375
2020-12-01 18:38:16.8720,-0.16032655537128448,-0.601317822933197,-0.3973516225814819,0.09332275390625,-1.085784912109375,0.1807861328125
2020-12-01 18:38:16.8870,-0.16032655537128448,-0.601317822933197,-0.3973516225814819,0.09332275390625,-1.085784912109375,0.1807861328125
2020-12-01 18:38:16.9050,-0.059079833328723914,-0.9216324090957642,-0.4474416971206665,-0.074951171875,-1.120697021484375,0.0802459716796875
2020-12-01 18:38:16.9360,-0.05338545888662338,-0.16063548624515533,-1.2264959812164309,-0.12274169921875,-0.7699127197265625,0.3170013427734375
2020-12-01 18:38:16.9530,-0.10858719795942308,-0.15850095450878146,-1.4504417181015017,0.01983642578125,-0.81683349609375,0.2998046875
2020-12-01 18:38:16.9690,-0.10858719795942308,-0.15850095450878146,-1.4504417181015017,0.1669921875,-0.844329833984375,0.2327728271484375
2020-12-01 18:38:16.9860,-0.0498272106051445,-0.3401053845882416,-1.5740115642547607,0.1669921875,-0.844329833984375,0.2327728271484375
2020-12-01 18:38:17.0190,-0.030687339603900913,0.12353099137544632,-1.8136593103408811,0.14544677734375,-0.9774322509765624,0.215179443359375
2020-12-01 18:38:17.0360,-0.07217645645141603,0.098038412630558,-2.141904354095459,0.1169891357421875,-0.8595123291015625,0.0522003173828125
2020-12-01 18:38:17.0530,0.043672647327184684,0.39471882581710815,-2.4098026752471924,0.0439453125,-0.90252685546875,0.1279754638671875
2020-12-01 18:38:17.0690,0.043672647327184684,0.39471882581710815,-2.4098026752471924,0.0439453125,-0.90252685546875,0.1279754638671875
2020-12-01 18:38:17.0870,0.1819133460521698,0.22071292996406555,-2.675715923309326,-0.0246734619140625,-1.16436767578125,0.20721435546875
2020-12-01 18:38:17.1200,0.4936049282550812,-1.2787545919418335,-2.965662717819214,0.119720458984375,-1.408843994140625,-0.0793609619140625
2020-12-01 18:38:17.1360,0.4924949109554291,-2.311311960220337,-2.856020212173462,-0.0965118408203125,-1.54290771484375,-0.134735107421875
2020-12-01 18:38:17.1520,0.4924949109554291,-2.311311960220337,-2.856020212173462,-0.6191253662109375,-1.89599609375,-0.0310211181640625
2020-12-01 18:38:17.1690,0.19542595744133,-2.4361443519592285,-2.770752191543579,-0.6191253662109375,-1.89599609375,-0.0310211181640625
2020-12-01 18:38:17.1880,-0.2371057569980621,-2.8185181617736816,-3.1989760398864746,-0.5891876220703125,-2.2775115966796875,-0.0217437744140625
2020-12-01 18:38:17.2190,0.07012742012739183,-1.107814073562622,-2.988010883331299,-0.6611328125,-2.4636383056640625,0.6814727783203125
2020-12-01 18:38:17.2360,0.3002823293209076,0.23730069398880005,-2.734259366989136,-0.2301177978515625,-1.709197998046875,0.4998779296875
2020-12-01 18:38:17.2520,0.3002823293209076,0.23730069398880005,-2.734259366989136,0.287689208984375,-1.585296630859375,0.3469696044921875
2020-12-01 18:38:17.2680,0.9587523937225342,0.7799493074417114,-1.7549504041671753,0.287689208984375,-1.585296630859375,0.3469696044921875
2020-12-01 18:38:17.2850,0.8493009805679321,-0.1753545105457306,-0.4959892332553864,0.91778564453125,-1.420745849609375,0.6038665771484375
2020-12-01 18:38:17.3180,0.4517690539360046,-1.9510201215744016,2.0891811847686768,-0.1700439453125,-0.571258544921875,-0.017547607421875
2020-12-01 18:38:17.3350,0.2737484574317932,0.657887876033783,2.562850952148437,-0.480194091796875,-0.2725830078125,0.0755157470703125
2020-12-01 18:38:17.3520,0.2737484574317932,0.657887876033783,2.562850952148437,-0.2271270751953125,-0.372161865234375,0.164459228515625
2020-12-01 18:38:17.3680,0.042944271117448814,2.9837586879730225,3.0691297054290767,-0.2271270751953125,-0.372161865234375,0.164459228515625
2020-12-01 18:38:17.3870,-0.22715671360492706,3.094801187515259,3.89891529083252,0.2517547607421875,-0.6302947998046875,0.1402587890625
2020-12-01 18:38:17.4070,-0.3345175385475159,2.1675655841827397,4.507596015930176,0.4154510498046875,-0.634429931640625,-0.02484130859375
2020-12-01 18:38:17.4380,-0.6669481992721558,1.0750731229782104,5.564254760742188,0.3205413818359375,-0.6738128662109375,0.028533935546875
2020-12-01 18:38:17.4520,-0.6669481992721558,1.0750731229782104,5.564254760742188,0.2491607666015625,-0.7417449951171875,0.084930419921875
2020-12-01 18:38:17.4690,-0.8471885323524475,0.8110561370849609,5.853429317474365,0.2491607666015625,-0.7417449951171875,0.084930419921875
2020-12-01 18:38:17.4860,-0.8601378798484802,0.7287745475769043,6.316863536834718,0.4099273681640625,-0.927734375,0.0864410400390625
2020-12-01 18:38:17.5060,-0.5500274300575256,0.3166988492012024,6.997721195220947,0.7215576171875,-1.220184326171875,0.1027374267578125
2020-12-01 18:38:17.5370,-0.19782546162605288,2.371236801147461,6.155354499816895,0.615966796875,-1.52886962890625,0.476226806640625
2020-12-01 18:38:17.5560,-0.0993790477514267,0.5210357308387756,4.640876770019531,1.3046875,-2.380950927734375,0.5681915283203125
2020-12-01 18:38:17.5730,-0.0993790477514267,0.5210357308387756,4.640876770019531,1.3046875,-2.380950927734375,0.5681915283203125
2020-12-01 18:38:17.5870,0.6319862604141235,0.5166356563568115,2.383174419403076,2.153350830078125,-1.7022247314453125,0.8317108154296875
2020-12-01 18:38:17.6080,0.39006441831588745,-0.35458284616470337,0.3971646726131439,2.3968658447265625,-0.4503173828125,0.5189666748046875
2020-12-01 18:38:17.6380,0.6036451458930969,1.0613381862640379,-2.6868908405303955,1.8167724609375,-0.6798248291015625,0.140533447265625
2020-12-01 18:38:17.6550,0.6036451458930969,1.0613381862640379,-2.6868908405303955,1.5400848388671875,-0.5534820556640625,0.34576416015625
2020-12-01 18:38:17.6720,1.7306454181671145,0.7247033715248108,-2.8384764194488525,1.5400848388671875,-0.5534820556640625,0.34576416015625
2020-12-01 18:38:17.6890,-3.4038000106811523,-1.2183626890182495,-3.006866455078125,0.5599212646484375,-0.6183929443359375,3.698486328125
2020-12-01 18:38:17.7060,0.887569785118103,-2.180914163589477,-3.658070087432861,-0.9315338134765624,-6.2525634765625,-4.3485260009765625
2020-12-01 18:38:17.7380,1.4241900444030762,-0.5632167458534241,-1.09275221824646,-0.351409912109375,0.0281829833984375,-2.259979248046875
2020-12-01 18:38:17.7550,1.4241900444030762,-0.5632167458534241,-1.09275221824646,-0.352142333984375,-0.4147796630859375,0.2228240966796875
2020-12-01 18:38:17.7710,0.4393206536769867,1.5907719135284424,-1.39840829372406,-0.352142333984375,-0.4147796630859375,0.2228240966796875
2020-12-01 18:38:17.7880,0.5329491496086121,0.9542633295059204,-0.9502057433128356,0.2195587158203125,-1.7038421630859375,0.5224456787109375
2020-12-01 18:38:17.8070,0.5670170783996582,-0.653484582901001,-0.5445394515991211,1.1131744384765625,-1.666900634765625,0.568603515625
2020-12-01 18:38:17.8380,-0.3666515052318573,-1.465576410293579,-0.5947456359863281,0.3150177001953125,-0.6956634521484375,0.5243072509765625
2020-12-01 18:38:17.8550,-0.3666515052318573,-1.465576410293579,-0.5947456359863281,-0.254638671875,-1.249114990234375,-0.0470428466796875
2020-12-01 18:38:17.8710,-0.10668490082025528,-1.812049388885498,-0.1600349396467209,-0.254638671875,-1.249114990234375,-0.0470428466796875
2020-12-01 18:38:17.8890,-0.14980919659137726,0.532362163066864,-0.3622889816761017,-0.2039337158203125,-1.1415557861328125,0.3438262939453125
2020-12-01 18:38:17.9070,-0.07544628530740738,-0.30791229009628296,-0.4938296973705292,-0.170928955078125,-1.0528106689453125,-0.0457611083984375
2020-12-01 18:38:17.9380,-0.06960783898830414,-0.12537629902362826,-0.8810703754425049,-0.0725860595703125,-0.897857666015625,0.19561767578125
2020-12-01 18:38:17.9550,-0.06960783898830414,-0.12537629902362826,-0.8810703754425049,-0.0725860595703125,-0.897857666015625,0.19561767578125
2020-12-01 18:38:17.9710,-0.11537692695856094,0.01958808302879333,-1.102529764175415,-0.1332244873046875,-0.7874603271484375,0.30145263671875
2020-12-01 18:38:17.9880,-0.10874538868665697,-0.16153137385845184,-1.1297640800476074,0.0707550048828125,-0.801025390625,0.319549560546875
2020-12-01 18:38:18.0070,-0.11455827206373215,-0.4739406704902649,-1.1943968534469604,0.2161865234375,-0.8441619873046875,0.2248687744140625
2020-12-01 18:38:18.0380,-0.03827175498008728,-0.31976255774497986,-1.3084746599197388,0.0348663330078125,-0.9092559814453124,0.1873016357421875
2020-12-01 18:38:18.0550,0.013338175602257252,-0.03857961669564247,-1.4791207313537598,0.0348663330078125,-0.9092559814453124,0.1873016357421875
2020-12-01 18:38:18.0720,-0.07308140397071837,0.2152654379606247,-1.6957489252090454,0.042877197265625,-0.9191436767578124,0.3568878173828125
2020-12-01 18:38:18.0880,-0.016082828864455227,0.39870449900627136,-1.8368726968765257,0.06951904296875,-0.9883575439453124,0.18389892578125
2020-12-01 18:38:18.1070,0.00525761255994439,0.1253451406955719,-2.120107889175415,0.0829620361328125,-1.0682525634765625,0.0678253173828125
2020-12-01 18:38:18.1380,0.04759681224822998,0.13532453775405884,-2.453308582305908,0.0173492431640625,-1.385955810546875,0.0146331787109375
2020-12-01 18:38:18.1550,0.18856830894947046,-0.018137725070118904,-2.618585586547852,0.0173492431640625,-1.385955810546875,0.0146331787109375
2020-12-01 18:38:18.1720,0.3706044256687164,-0.29945409297943115,-2.6062822341918945,0.1065673828125,-1.47259521484375,0.2061920166015625
2020-12-01 18:38:18.1880,0.4778611063957214,-1.2845070362091064,-2.6439058780670166,0.3381195068359375,-1.4390869140625,0.1139068603515625
2020-12-01 18:38:18.2070,0.5195276141166687,-2.618680000305176,-2.4160711765289307,0.0654144287109375,-1.53570556640625,-0.131439208984375
2020-12-01 18:38:18.2380,0.3434889316558838,-2.547257661819458,-2.774728298187256,-0.6573333740234375,-1.9765777587890625,-0.115478515625
2020-12-01 18:38:18.2550,0.20097091794013974,-3.2995939254760738,-2.681617021560669,-0.6573333740234375,-1.9765777587890625,-0.115478515625
2020-12-01 18:38:18.2720,-0.2419191598892212,-2.935807704925537,-2.9809226989746094,-0.3323516845703125,-1.8451995849609373,0.2713775634765625
2020-12-01 18:38:18.2880,-0.09742136299610138,-2.8177525997161865,-2.7030277252197266,-0.1280059814453125,-2.1736602783203125,0.6697235107421875
2020-12-01 18:38:18.3070,0.22249512374401093,-1.2505879402160645,-2.6642961502075195,-0.2929840087890625,-2.0761871337890625,0.556884765625
2020-12-01 18:38:18.3380,0.6374942064285278,-0.33723607659339905,-2.2074103355407715,0.550872802734375,-1.157745361328125,0.568359375
2020-12-01 18:38:18.3550,0.7529699206352234,0.25702887773513794,-1.4305862188339231,0.550872802734375,-1.157745361328125,0.568359375
2020-12-01 18:38:18.3710,0.5302811861038208,-1.2249614000320437,-0.10709263384342194,0.5960235595703125,-1.0539398193359375,0.1864013671875
2020-12-01 18:38:18.3880,0.32300761342048645,-1.7970014810562134,1.133156418800354,0.0460205078125,-0.6866607666015625,-0.0532684326171875
2020-12-01 18:38:18.4070,0.1375322937965393,0.14178749918937686,1.7565193176269531,-0.33758544921875,-0.3607635498046875,0.022735595703125
2020-12-01 18:38:18.4380,-0.1076529622077942,2.377608299255371,2.351456642150879,-0.268280029296875,-0.28485107421875,0.066802978515625
2020-12-01 18:38:18.4550,-0.23959635198116305,2.9108846187591557,3.0446057319641118,0.091278076171875,-0.47100830078125,0.144378662109375
2020-12-01 18:38:18.4710,-0.27646806836128235,2.601200580596924,3.50522255897522,0.3256378173828125,-0.5514678955078125,0.0561676025390625
2020-12-01 18:38:18.4880,-0.38183364272117615,2.1625931262969966,4.036954402923584,0.42608642578125,-0.6000518798828125,0.0811767578125
2020-12-01 18:38:18.5070,-0.5206701159477234,1.874754548072815,4.544701099395752,0.33734130859375,-0.63311767578125,0.025054931640625
2020-12-01 18:38:18.5370,-0.7327860593795776,1.5068279504776,4.854002952575684,0.30712890625,-0.73760986328125,0.0527801513671875
2020-12-01 18:38:18.5550,-0.7729787826538086,1.2637522220611572,5.1350440979003915,0.4420166015625,-0.80615234375,0.047943115234375
2020-12-01 18:38:18.5720,-0.754120945930481,1.2563116550445557,5.6634483337402335,0.561187744140625,-0.911773681640625,0.1738433837890625
2020-12-01 18:38:18.5880,-0.6365231871604919,1.508857011795044,6.151410102844237,0.6135406494140625,-1.0615692138671875,0.3238677978515625
2020-12-01 18:38:18.6070,-0.4284403026103973,1.7667477130889893,6.093930244445801,0.5166168212890625,-1.2364349365234375,0.3705596923828125
2020-12-01 18:38:18.6380,-0.3094308078289032,2.01467514038086,5.515960693359375,0.6096343994140625,-1.64947509765625,0.484893798828125
2020-12-01 18:38:18.6550,-0.18894675374031067,1.4768394231796265,4.7890729904174805,1.2305450439453125,-1.88519287109375,0.72906494140625
2020-12-01 18:38:18.6720,0.30850642919540405,0.32810384035110474,3.8297395706176762,1.8574981689453125,-1.5935516357421875,0.36505126953125
2020-12-01 18:38:18.6880,0.5359600782394409,0.11347410082817078,1.7132914066314695,1.6281280517578125,-0.9632568359375,0.4903106689453125
2020-12-01 18:38:18.7070,0.24742603302001956,0.3331577181816101,0.3524557948112488,1.77252197265625,-0.82452392578125,0.4273529052734375
2020-12-01 18:38:18.7370,0.2511131763458252,0.4384231567382813,-1.242248296737671,1.5811614990234375,-0.8507537841796875,0.12359619140625
2020-12-01 18:38:18.7550,0.4906927645206451,0.4038593173027039,-2.052849531173706,1.5515289306640625,-0.7110595703125,0.0796051025390625
2020-12-01 18:38:18.7720,2.4011821746826167,-0.4827339053153992,-2.202502727508545,1.04998779296875,-0.716644287109375,0.371185302734375
2020-12-01 18:38:18.7880,-2.4329841136932373,-0.8227524757385254,-1.845475554466248,-0.477935791015625,-1.3207855224609375,2.77899169921875
2020-12-01 18:38:18.8060,0.5694720149040222,1.1438950300216677,-3.4854831695556636,-1.0950469970703125,-4.61859130859375,-1.9646759033203125
2020-12-01 18:38:18.8380,0.5821539759635925,0.9284594655036926,-2.482736110687256,0.5960693359375,-1.04400634765625,0.0008697509765625
2020-12-01 18:38:18.8550,1.2687171697616575,0.3436660170555115,-1.6561516523361206,0.9403533935546876,-0.033111572265625,-1.33892822265625
2020-12-01 18:38:18.8720,1.0875705480575562,-1.5839334726333618,-2.220696210861206,0.0054931640625,-0.5230255126953125,-0.2399444580078125
2020-12-01 18:38:18.8880,0.6482637524604797,-0.5272814035415649,-1.601399540901184,-0.18609619140625,-1.55157470703125,0.8620452880859375
2020-12-01 18:38:18.9070,0.3108763694763184,-0.01774464175105095,-0.6688566207885742,0.405914306640625,-1.4694976806640625,0.948272705078125
2020-12-01 18:38:18.9380,-0.025319471955299374,-0.9984151124954224,-0.458170235157013,0.3647003173828125,-0.5998687744140625,0.388702392578125
2020-12-01 18:38:18.9550,-0.14823128283023834,-0.5264393091201782,-0.2791496217250824,0.0534515380859375,-0.91168212890625,0.3256683349609375
2020-12-01 18:38:18.9710,-0.07303506135940553,0.07054793834686279,-0.314635694026947,-0.122955322265625,-1.274688720703125,0.1666412353515625
2020-12-01 18:38:18.9880,-0.0355667807161808,-0.0820181667804718,-0.3224294483661652,0.0406646728515625,-1.104766845703125,0.143463134765625
2020-12-01 18:38:19.0070,0.002839728724211455,-0.4536524415016174,-0.3941395878791809,0.039306640625,-1.0444488525390625,0.06988525390625
2020-12-01 18:38:19.0380,0.031326230615377426,-0.5794721841812134,-0.5128062963485718,0.0113372802734375,-0.9531402587890624,0.1407470703125
2020-12-01 18:38:19.0550,-0.053890127688646317,-0.16808940470218658,-0.7936904430389404,-0.1613922119140625,-0.869293212890625,0.2865142822265625
2020-12-01 18:38:19.0720,-0.06716465950012207,0.02538711577653885,-0.9444775581359864,-0.123626708984375,-0.86077880859375,0.3215484619140625
2020-12-01 18:38:19.0880,-0.05437775328755379,-0.08753251284360886,-1.1011263132095337,0.0503692626953125,-0.894989013671875,0.2630767822265625
2020-12-01 18:38:19.1070,-0.03147882968187332,-0.2679182589054108,-1.134278655052185,0.2073822021484375,-0.94769287109375,0.1569671630859375
2020-12-01 18:38:19.1370,-0.035230692476034164,-0.12808579206466675,-1.138708233833313,0.1444854736328125,-0.912628173828125,0.1962127685546875
2020-12-01 18:38:19.1550,-0.00564030883833766,-0.005300755612552166,-1.138462781906128,0.1562652587890625,-0.9715423583984376,0.1867218017578125
2020-12-01 18:38:19.1720,0.00239258399233222,-0.051047205924987786,-1.1744401454925537,0.22540283203125,-0.993927001953125,0.172454833984375
2020-12-01 18:38:19.1880,-0.0015627428656443956,-0.1642667055130005,-1.1484147310256958,0.2873687744140625,-0.955902099609375,0.1115264892578125
2020-12-01 18:38:19.2070,-0.015056447125971316,-0.1622549593448639,-1.2185969352722168,0.248931884765625,-1.012176513671875,0.143829345703125
2020-12-01 18:38:19.2380,-0.0027553064282983537,0.0032304143533110623,-1.388554334640503,0.088470458984375,-1.0348968505859375,0.195159912109375
2020-12-01 18:38:19.2550,-0.010186324827373028,0.3970986306667328,-1.5751516819000244,0.0485382080078125,-1.1075439453125,0.2539215087890625
2020-12-01 18:38:19.2710,0.0653449147939682,0.21106617152690887,-1.7369946241378784,0.2099609375,-1.136383056640625,0.122406005859375
2020-12-01 18:38:19.2880,0.1003098264336586,-0.2291543632745743,-1.8551473617553709,0.2657928466796875,-1.1808013916015625,0.1076202392578125
2020-12-01 18:38:19.3070,0.16555780172348022,-0.3081125617027283,-2.0884125232696533,0.081085205078125,-1.2330322265625,0.1272430419921875
2020-12-01 18:38:19.3380,0.26345133781433105,-0.6400359272956848,-2.327662706375122,-0.0405731201171875,-1.267822265625,0.09185791015625
2020-12-01 18:38:19.3550,0.23042601346969604,-1.3035539388656616,-2.348135709762573,-0.0487823486328125,-1.3899688720703125,0.082000732421875
2020-12-01 18:38:19.3720,0.1504715234041214,-1.7605297565460205,-2.5027191638946533,-0.1082305908203125,-1.63958740234375,0.0926666259765625
2020-12-01 18:38:19.3880,0.03681101277470589,-2.701110601425171,-2.3870737552642822,-0.4798583984375,-1.846221923828125,-0.1419830322265625
2020-12-01 18:38:19.4070,-0.04815714433789253,-2.7447454929351807,-2.7323286533355717,-0.25177001953125,-1.8077239990234373,-0.0546722412109375
2020-12-01 18:38:19.4380,-0.3467355966567993,-2.482699394226074,-2.8434085845947266,-0.1199188232421875,-1.76605224609375,0.270111083984375
2020-12-01 18:38:19.4550,0.20175762474536896,-1.3095383644104004,-2.614823818206787,-0.090606689453125,-1.8206634521484373,0.299591064453125
2020-12-01 18:38:19.4720,0.2299288064241409,-0.4037304222583771,-2.3525643348693848,0.023529052734375,-1.4910430908203125,0.347503662109375
2020-12-01 18:38:19.4880,0.5237742662429811,-0.355283796787262,-1.536357879638672,0.274383544921875,-1.296051025390625,0.2488555908203125
2020-12-01 18:38:19.5070,0.6749187707901001,-0.35315272212028503,-0.7753082513809204,0.64544677734375,-1.08544921875,0.3867950439453125
2020-12-01 18:38:19.5380,0.3887469470500946,-1.3923346996307373,0.23401595652103424,0.48895263671875,-0.83392333984375,0.2206878662109375
2020-12-01 18:38:19.5550,0.1958576589822769,-1.6192365884780884,1.2265214920043943,-0.0359344482421875,-0.579742431640625,0.0930023193359375
2020-12-01 18:38:19.5720,0.08760734647512436,0.20825466513633728,1.7689285278320312,-0.2977142333984375,-0.360809326171875,0.1523284912109375
2020-12-01 18:38:19.5880,0.036378245800733566,2.0164749622344966,2.263213872909546,-0.100738525390625,-0.326324462890625,0.1721343994140625
2020-12-01 18:38:19.6070,0.036378245800733566,2.0164749622344966,2.263213872909546,0.2640228271484375,-0.4228363037109375,0.047271728515625
2020-12-01 18:38:19.6380,-0.13863830268383026,1.7228848934173584,3.3470866680145264,0.3667144775390625,-0.5971832275390625,0.03765869140625
2020-12-01 18:38:19.6550,-0.2790516018867493,1.7641010284423828,3.8332211971282963,0.2425384521484375,-0.6340179443359375,0.0205841064453125
2020-12-01 18:38:19.6720,-0.5581287741661072,1.590278387069702,4.095870494842528,0.23626708984375,-0.6107635498046875,0.0618438720703125
2020-12-01 18:38:19.6880,-0.5581287741661072,1.590278387069702,4.095870494842528,0.4058685302734375,-0.748016357421875,0.0731658935546875
2020-12-01 18:38:19.7070,-0.703690767288208,0.9866902828216552,4.442407608032227,0.5619049072265625,-0.880279541015625,0.1258697509765625
2020-12-01 18:38:19.7380,-0.564405083656311,1.3955036401748655,5.349140644073486,0.51287841796875,-0.9586334228515624,0.2359466552734375
2020-12-01 18:38:19.7550,-0.4767836034297943,2.001452684402466,5.515894412994385,0.4259033203125,-1.0585479736328125,0.253570556640625
2020-12-01 18:38:19.7710,-0.5196202993392944,1.6343430280685425,5.588033199310303,0.5871429443359375,-1.325897216796875,0.3310394287109375
2020-12-01 18:38:19.7880,-0.5196202993392944,1.6343430280685425,5.588033199310303,0.8327789306640625,-1.5498504638671875,0.3609771728515625
2020-12-01 18:38:19.8070,-0.4252474308013916,0.9982014894485474,5.213298320770264,0.8327789306640625,-1.5498504638671875,0.3609771728515625
2020-12-01 18:38:19.8380,0.3256063163280487,1.0492913722991943,3.119147300720215,1.66644287109375,-1.14093017578125,0.6418609619140625
2020-12-01 18:38:19.8550,0.4102338552474976,-0.0378701500594616,1.4380640983581543,1.7092437744140625,-1.0719146728515625,0.31640625
2020-12-01 18:38:19.8720,0.4436930119991303,0.338098406791687,-0.01119459792971611,1.6029205322265625,-0.96038818359375,0.384552001953125
2020-12-01 18:38:19.8880,0.4436930119991303,0.338098406791687,-0.01119459792971611,1.675262451171875,-0.8567962646484375,0.296661376953125
2020-12-01 18:38:19.9070,0.4771689474582672,1.0155746936798096,-1.5880621671676636,1.675262451171875,-0.8567962646484375,0.296661376953125
2020-12-01 18:38:19.9380,-0.6849392056465149,-2.2919647693634038,-3.65358829498291,0.4337005615234375,-1.7922210693359375,-0.387176513671875
2020-12-01 18:38:19.9550,0.8604220747947693,0.14173875749111176,-3.7292516231536874,-0.381988525390625,-3.611495971679688,-0.503997802734375
2020-12-01 18:38:19.9720,0.8057220578193665,1.5789293050765991,-2.794296741485596,-0.117156982421875,-0.8236236572265625,0.545166015625
2020-12-01 18:38:19.9880,0.8057220578193665,1.5789293050765991,-2.794296741485596,0.2467193603515625,0.2420806884765625,-0.3900604248046875
2020-12-01 18:38:20.0070,0.5940406918525696,1.5420852899551392,-2.0955061912536617,0.2467193603515625,0.2420806884765625,-0.3900604248046875
2020-12-01 18:38:20.0380,0.4680228531360626,-0.8098182678222656,-0.9298373460769652,0.615875244140625,-1.79248046875,-0.133026123046875
2020-12-01 18:38:20.0540,0.5864581465721129,-0.8513686656951904,-0.2997978925704956,0.888153076171875,-2.0057373046875,0.374420166015625
2020-12-01 18:38:20.0720,0.3447752296924591,-2.1845841407775883,-0.12999582290649414,0.2667694091796875,-0.687347412109375,0.03411865234375
2020-12-01 18:38:20.0880,0.3447752296924591,-2.1845841407775883,-0.12999582290649414,0.2667694091796875,-0.687347412109375,0.03411865234375
2020-12-01 18:38:20.1180,0.06259254366159439,0.2746992111206055,-0.025175128132104874,-0.1262969970703125,-1.3788909912109375,0.3336334228515625
2020-12-01 18:38:20.1370,-0.04589105769991875,0.013754694722592829,-0.0810578316450119,0.1607818603515625,-1.066314697265625,0.2500152587890625
2020-12-01 18:38:20.1550,-0.037027791142463684,-0.5040019154548645,-0.06155950203537941,0.1075897216796875,-1.069549560546875,0.1565704345703125
2020-12-01 18:38:20.1710,0.0054661380127072326,-0.3179020583629608,-0.2712844908237457,-0.07171630859375,-1.0401611328125,0.1340789794921875
2020-12-01 18:38:20.1880,0.0054661380127072326,-0.3179020583629608,-0.2712844908237457,-0.07171630859375,-1.0401611328125,0.1340789794921875
2020-12-01 18:38:20.2070,-0.02773282863199711,-0.2217917889356613,-0.4665879607200623,-0.1429595947265625,-0.94207763671875,0.176849365234375
2020-12-01 18:38:20.2380,0.016275908797979355,-0.4444355070590973,-0.8228118419647217,0.0735626220703125,-0.864776611328125,0.1522216796875
2020-12-01 18:38:20.2550,-0.0013725932221859696,-0.4253864586353302,-0.985300064086914,0.1131744384765625,-0.8205108642578125,0.2879791259765625
2020-12-01 18:38:20.2710,-0.0013725932221859696,-0.4253864586353302,-0.985300064086914,0.0983123779296875,-0.8412933349609375,0.3076934814453125
2020-12-01 18:38:20.2880,-0.02180729433894157,-0.179230734705925,-1.1350312232971191,0.0983123779296875,-0.8412933349609375,0.3076934814453125
2020-12-01 18:38:20.3060,0.018611768260598183,-0.3311811089515686,-1.2259670495986938,0.248687744140625,-0.8132476806640625,0.2056427001953125
2020-12-01 18:38:20.3380,0.034154508262872696,0.052344165742397315,-1.3215795755386353,0.185577392578125,-0.8738555908203125,0.205596923828125
2020-12-01 18:38:20.3550,-0.01004783995449543,0.20757609605789185,-1.3573447465896606,0.28802490234375,-1.0351715087890625,0.18145751953125
2020-12-01 18:38:20.3720,-0.01004783995449543,0.20757609605789185,-1.3573447465896606,0.4480133056640625,-1.059173583984375,0.120574951171875
2020-12-01 18:38:20.3880,-0.02220357209444046,-0.2447522282600403,-1.2954747676849363,0.4480133056640625,-1.059173583984375,0.120574951171875
2020-12-01 18:38:20.4060,0.04789987951517105,-0.12933748960494995,-1.4271997213363647,0.305389404296875,-0.94915771484375,0.128631591796875
2020-12-01 18:38:20.4380,0.03564134985208512,0.7008404135704039,-1.7452032566070557,0.038482666015625,-1.23895263671875,0.3514404296875
2020-12-01 18:38:20.4550,0.17928320169448853,0.04215837270021439,-1.8232219219207764,0.3657989501953125,-1.2935333251953125,0.10675048828125
2020-12-01 18:38:20.4710,0.17928320169448853,0.04215837270021439,-1.8232219219207764,0.4146728515625,-1.23382568359375,-0.0927581787109375
2020-12-01 18:38:20.4880,0.3010783493518829,-0.8889296054840088,-1.817496418952942,0.4146728515625,-1.23382568359375,-0.0927581787109375
2020-12-01 18:38:20.5060,0.26857659220695496,-1.085309982299805,-2.0733864307403564,-0.0375518798828125,-1.35833740234375,-0.026824951171875
2020-12-01 18:38:20.5380,0.2262568324804306,-1.9479478597640991,-2.453644037246704,-0.3236846923828125,-1.818206787109375,-0.06158447265625
2020-12-01 18:38:20.5550,0.13563984632492065,-1.7138538360595703,-2.6747586727142334,-0.413055419921875,-1.85955810546875,0.142486572265625
2020-12-01 18:38:20.5710,0.13563984632492065,-1.7138538360595703,-2.6747586727142334,-0.0208892822265625,-1.7796630859375,0.004119873046875
2020-12-01 18:38:20.5880,-0.04379142448306084,-2.697692394256592,-2.7376513481140137,-0.0208892822265625,-1.7796630859375,0.004119873046875
2020-12-01 18:38:20.6060,0.18993930518627167,-2.717320680618286,-2.212632417678833,0.1243133544921875,-1.9784393310546875,0.4121856689453125
2020-12-01 18:38:20.6380,0.6217783093452454,-1.018524408340454,-1.8295814990997317,-0.012451171875,-1.27081298828125,0.2278594970703125
2020-12-01 18:38:20.6550,0.9386284351348876,-0.2332732081413269,-1.2959789037704468,0.512298583984375,-1.1314697265625,0.4153594970703125
2020-12-01 18:38:20.6720,0.9386284351348876,-0.2332732081413269,-1.2959789037704468,0.7832489013671875,-1.010589599609375,0.27337646484375
2020-12-01 18:38:20.6880,0.6431893706321716,-1.5459042787551882,-0.2783400118350983,0.7832489013671875,-1.010589599609375,0.27337646484375
2020-12-01 18:38:20.7060,0.4962132275104522,-2.46663498878479,1.0780028104782104,0.0654754638671875,-0.755584716796875,-0.1126861572265625
2020-12-01 18:38:20.7380,0.10958055406808853,2.7346882820129395,2.072600841522217,-0.335784912109375,-0.348052978515625,0.0515594482421875
2020-12-01 18:38:20.7550,0.03118029050529003,3.3474984169006348,2.582472801208496,0.1033782958984375,-0.4884185791015625,0.03729248046875
2020-12-01 18:38:20.7680,0.03118029050529003,3.3474984169006348,2.582472801208496,0.1033782958984375,-0.4884185791015625,0.03729248046875
2020-12-01 18:38:20.7880,-0.13416233658790588,3.0996155738830566,3.1893033981323238,0.43988037109375,-0.6144256591796875,0.09539794921875
