time,ax,ay,az,atotal
0.005409955978393555,0.31,-0.07,-0.23,0.39
0.014175891876220703,0.27,-0.18,-0.18,0.37
0.024558067321777344,0.16,-0.1,-0.08,0.2
0.04872894287109375,0.12,-0.01,-0.04,0.12
0.05140495300292969,0.19,0.0,0.02,0.19
0.05423402786254883,0.21,-0.03,-0.08,0.22
0.06434202194213867,0.22,-0.07,-0.21,0.31
0.08253598213195801,0.19,-0.19,-0.26,0.37
0.09270715713500977,0.21,-0.12,-0.19,0.3
0.10628890991210938,0.21,-0.07,-0.12,0.25
0.11249589920043945,0.18,-0.08,-0.06,0.2
0.1275169849395752,0.14,-0.06,-0.01,0.15
0.1323070526123047,0.15,-0.06,-0.01,0.16
0.1522669792175293,0.1,-0.08,0.02,0.12
0.15501785278320312,0.03,-0.08,0.09,0.12
0.16265583038330078,-0.03,-0.09,0.09,0.13
0.17248106002807617,-0.08,-0.07,0.12,0.16
0.18286991119384766,-0.12,-0.01,0.09,0.15
0.19339990615844727,-0.09,-0.04,0.01,0.09
0.20278096199035645,-0.01,-0.09,-0.07,0.11
0.21715497970581055,0.05,-0.08,-0.03,0.09
0.22262811660766602,0.04,-0.05,0.04,0.07
0.23331403732299805,0.0,0.03,0.08,0.08
0.25520801544189453,-0.05,0.04,0.08,0.1
0.2583961486816406,-0.07,0.02,-0.01,0.07
0.2629251480102539,-0.11,-0.02,-0.13,0.17
0.272921085357666,-0.14,-0.06,-0.14,0.2
0.28305912017822266,-0.16,-0.05,-0.07,0.18
0.2932901382446289,-0.18,-0.03,-0.02,0.18
0.30254411697387695,-0.18,0.0,-0.03,0.18
0.31694507598876953,-0.21,0.02,-0.02,0.21
0.323138952255249,-0.22,-0.02,-0.01,0.22
0.33733105659484863,-0.18,-0.14,-0.08,0.24
0.3506040573120117,-0.08,-0.24,-0.07,0.26
0.35318994522094727,-0.02,-0.36,-0.09,0.37
0.3633270263671875,0.23,-0.4,0.04,0.46
0.37328195571899414,0.58,-0.38,0.26,0.74
0.38415002822875977,0.83,-0.27,0.39,0.95
0.39706993103027344,1.03,-0.1,0.4,1.1
0.4033951759338379,1.15,0.02,0.63,1.31
0.417402982711792,1.06,0.09,0.89,1.38
0.4235868453979492,0.66,-0.01,0.95,1.15
0.43397998809814453,-0.06,-0.12,1.37,1.37
0.45851612091064453,-0.9,-0.15,2.38,2.54
0.4615139961242676,-1.33,-0.26,2.81,3.11
0.4640989303588867,-0.92,-0.46,2.87,3.04
0.4736781120300293,-0.22,-0.35,2.39,2.42
0.4837031364440918,0.26,-0.15,1.7,1.72
0.4935789108276367,0.39,-0.19,1.25,1.32
0.5036530494689941,0.22,-0.31,0.96,1.03
0.5176100730895996,-0.2,-0.35,0.74,0.84
0.5245060920715332,-0.38,-0.53,0.97,1.16
0.5374300479888916,-0.5,-0.68,1.22,1.48
0.552886962890625,-0.47,-0.71,1.62,1.83
0.5554828643798828,-0.45,-0.82,2.11,2.3
0.5640170574188232,-0.69,-0.93,2.37,2.63
0.5739259719848633,-1.03,-0.82,2.36,2.7
0.5840740203857422,-1.36,-0.52,2.1,2.55
0.5939230918884277,-1.41,-0.13,1.41,1.99
0.6093049049377441,-1.08,0.04,0.38,1.14
0.6141250133514404,-0.49,-0.2,-0.5,0.72
0.6248719692230225,-0.09,-0.66,-0.98,1.18
0.6342978477478027,-0.12,-0.7,-1.23,1.42
0.6561388969421387,-0.25,-0.25,-1.47,1.51
0.6592800617218018,0.08,0.04,-1.07,1.07
0.6643869876861572,0.87,0.16,-0.99,1.32
0.6742410659790039,1.84,0.4,-0.4,1.92
0.6846020221710205,2.09,0.43,1.32,2.5
0.6951479911804199,1.15,0.18,2.67,2.91
0.7088661193847656,0.52,-0.36,2.82,2.89
0.7150230407714844,0.93,-0.83,1.89,2.26
0.7284908294677734,1.59,-1.03,0.33,1.92
0.7345771789550781,1.7,-0.66,-1.31,2.24
0.7534670829772949,1.1,0.25,-1.16,1.61
0.7563691139221191,-0.48,0.67,0.1,0.83
0.7646880149841309,-1.91,0.37,0.84,2.11
0.7748599052429199,-1.94,-0.04,1.12,2.24
0.7847700119018555,-1.04,0.22,-0.05,1.06
0.7952840328216553,0.45,0.65,-1.59,1.77
0.8048050403594971,1.7,0.76,-2.69,3.27
0.8188250064849854,2.15,0.51,-2.53,3.35
0.8253049850463867,1.87,0.12,-1.87,2.64
0.8393599987030029,1.54,0.23,-1.1,1.9
0.852370023727417,1.47,1.14,-0.51,1.92
0.8551039695739746,1.58,1.78,-0.46,2.42
0.8650031089782715,1.63,1.54,-0.74,2.36
0.8750309944152832,1.36,0.9,-0.99,1.9
0.8849730491638184,0.75,0.53,-1.02,1.37
0.8949790000915527,-0.14,0.54,-0.97,1.11
0.9102849960327148,-1.1,0.59,-0.75,1.45
0.9152650833129883,-2.15,0.53,-0.77,2.34
0.9256949424743652,-3.03,0.46,-0.8,3.16
0.9389400482177734,-3.46,0.49,-0.1,3.49
0.9559011459350586,-3.71,0.97,0.92,3.94
0.9584939479827881,-3.8,1.34,1.36,4.25
0.9653911590576172,-3.34,1.01,0.86,3.59
0.975369930267334,-1.54,0.57,-0.24,1.65
0.9852380752563477,0.82,1.03,-0.39,1.37
0.995664119720459,1.77,1.88,-0.2,2.58
1.0101299285888672,1.42,1.98,0.37,2.46
1.015557050704956,0.23,2.22,1.15,2.51
1.029667854309082,-1.03,2.84,2.46,3.89
1.0354750156402588,-2.27,2.89,3.63,5.16
1.0553441047668457,-3.4,2.81,4.09,6.01
1.058387041091919,-3.78,3.2,4.33,6.57
1.0656650066375732,-3.81,3.99,4.52,7.13
1.0756499767303467,-4.88,5.02,5.15,8.69
1.0858569145202637,-6.39,5.61,7.09,11.07
1.095646858215332,-7.69,5.75,9.12,13.24
1.1102559566497803,-8.2,5.56,10.18,14.2
1.1158030033111572,-7.82,5.8,10.15,14.06
1.126574993133545,-7.94,8.1,9.04,14.5
1.1364359855651855,-9.9,12.23,8.45,17.86
1.1582889556884766,-11.79,16.63,8.46,22.07
1.1612920761108398,-12.82,20.54,6.35,25.03
1.1664409637451172,-11.56,21.21,3.88,24.46
1.1816129684448242,-8.14,18.1,0.98,19.87
1.1860790252685547,-6.96,15.56,-2.48,17.22
1.1960289478302002,-6.22,14.39,-3.13,15.98
1.2064549922943115,-4.05,13.07,-0.97,13.71
1.2200119495391846,-1.77,11.53,0.75,11.68
1.2267169952392578,-0.68,9.31,0.43,9.34
1.2411890029907227,-0.44,6.91,-1.24,7.03
1.2547168731689453,0.31,4.76,-2.61,5.43
1.2572531700134277,1.6,2.97,-3.26,4.69
1.2663710117340088,3.65,1.33,-2.23,4.47
1.2761590480804443,5.61,0.19,-0.67,5.65
1.2863540649414062,6.23,-0.05,0.49,6.24
1.2963590621948242,5.24,-0.65,1.05,5.38
1.3107130527496338,3.39,-1.95,0.39,3.93
1.3165240287780762,1.98,-3.13,0.39,3.72
1.3270540237426758,1.02,-3.95,1.03,4.2
1.3401241302490234,0.4,-4.52,2.07,4.98
1.3571600914001465,-0.18,-4.76,3.08,5.67
1.3604929447174072,-0.87,-4.72,3.2,5.76
1.3665030002593994,-1.54,-4.67,3.07,5.79
1.3765878677368164,-1.88,-5.18,3.54,6.54
1.3865208625793457,-1.92,-5.87,2.83,6.79
1.3967771530151367,-1.89,-6.35,-0.52,6.64
1.4074149131774902,-0.8,-6.69,-5.05,8.42
1.4205989837646484,1.24,-6.95,-9.44,11.78
1.4274120330810547,3.64,-6.57,-13.1,15.1
1.4417181015014648,5.81,-4.96,-16.33,18.02
1.4565620422363281,7.3,-1.82,-18.44,19.91
1.4592020511627197,8.23,2.08,-18.74,20.57
1.4669508934020996,8.14,3.92,-17.93,20.07
1.4771270751953125,6.6,1.74,-16.4,17.76
1.4869999885559082,4.43,-2.1,-14.02,14.85
1.4969899654388428,2.33,-4.35,-11.44,12.45
1.5113890171051025,0.93,-4.45,-9.38,10.42
1.5173900127410889,1.38,-4.03,-8.13,9.17
1.531177043914795,3.1,-3.25,-7.17,8.46
1.5372018814086914,3.97,-0.27,-4.9,6.31
1.5572519302368164,0.58,12.15,-1.33,12.23
1.5605690479278564,-4.89,40.5,16.19,43.88
1.567378044128418,-7.5,34.27,17.79,39.33
1.5771679878234863,0.51,0.21,1.49,1.58
1.5874359607696533,10.0,-12.87,2.41,16.47
1.598067045211792,6.57,-22.87,-14.34,27.78
1.6123080253601074,4.78,-24.06,-34.13,42.03
1.61860990524292,9.23,-14.04,-37.14,40.76
1.6280360221862793,17.22,-4.69,-22.59,28.78
1.6386029720306396,20.38,5.58,-7.95,22.57
1.6552209854125977,12.93,14.74,-5.59,20.38
1.6579041481018066,4.28,15.19,-3.35,16.13
1.6676280498504639,-0.47,7.17,-0.97,7.25
1.6778180599212646,-4.1,-0.42,-2.11,4.63
1.6877820491790771,-6.87,-4.49,-4.2,9.21
1.7016010284423828,-6.21,-5.38,-3.65,8.99
1.7077820301055908,-3.52,-3.29,-2.89,5.61
1.7176570892333984,-1.37,0.1,-3.48,3.74
1.7286839485168457,0.19,2.54,-3.14,4.04
1.7424709796905518,1.12,3.66,-1.83,4.24
1.757814884185791,0.95,3.46,-0.72,3.65
1.7608909606933594,-0.13,2.37,-0.22,2.38
1.767867088317871,-1.48,1.2,0.17,1.91
1.7780680656433105,-2.64,0.54,0.76,2.79
1.7881560325622559,-3.11,0.39,1.07,3.31
1.798058032989502,-2.64,0.45,0.91,2.82
1.8121750354766846,-1.48,0.73,1.23,2.05
1.8182358741760254,-0.44,1.07,1.78,2.12
1.828744888305664,-0.4,1.58,2.28,2.8
1.838299036026001,-1.55,2.61,3.0,4.26
1.8605108261108398,-2.76,3.58,4.16,6.14
1.864203929901123,-3.38,3.89,4.94,7.13
1.868190050125122,-3.87,3.87,4.79,7.27
1.8783321380615234,-4.25,3.85,5.22,7.75
1.888273000717163,-5.0,4.05,6.04,8.82
1.8986458778381348,-6.03,4.75,6.21,9.87
1.9122438430786133,-6.78,5.92,6.56,11.13
1.9192609786987305,-6.88,7.03,7.43,12.32
1.9324431419372559,-6.6,7.84,8.53,13.33
1.9384469985961914,-7.24,8.46,9.54,14.66
1.9617118835449219,-8.18,9.26,10.68,16.33
1.9647941589355469,-8.69,10.68,10.72,17.44
1.968498945236206,-10.02,13.87,9.38,19.51
1.980238914489746,-11.82,17.3,8.0,22.42
1.9889788627624512,-11.75,19.17,6.28,23.34
1.9990439414978027,-12.05,19.17,2.95,22.83
2.0103559494018555,-12.65,16.28,0.92,20.63
2.0237960815429688,-11.96,12.4,0.7,17.24
2.0288000106811523,-9.73,9.79,2.02,13.94
2.043437957763672,-6.58,7.08,1.0,9.71
2.0568628311157227,-4.89,5.1,-4.53,8.39
2.059506893157959,-2.65,4.03,-7.53,8.94
2.0689830780029297,0.64,4.11,-6.09,7.37
2.079015016555786,3.59,4.33,-2.17,6.02
2.089064121246338,4.11,3.03,-0.94,5.19
2.102818012237549,1.97,0.5,-3.19,3.78
2.108847141265869,-0.48,-1.97,-5.28,5.65
2.1244258880615234,-1.42,-3.99,-5.18,6.69
2.1291961669921875,-0.92,-5.45,-2.48,6.05
2.139611005783081,-0.37,-6.2,0.62,6.24
2.158578872680664,-1.0,-6.62,2.21,7.05
2.161263942718506,-2.53,-7.08,2.71,7.99
2.16917085647583,-3.99,-7.97,3.15,9.45
2.179391860961914,-4.93,-9.04,3.75,10.95
2.1891379356384277,-5.31,-9.69,3.99,11.74
2.203484058380127,-4.98,-9.52,3.47,11.29
2.209421157836914,-3.6,-8.3,2.39,9.35
2.219923973083496,-1.6,-6.71,0.85,6.95
2.2294678688049316,0.49,-5.36,-0.71,5.42
2.243756055831909,2.41,-4.34,-2.28,5.46
2.257848024368286,4.0,-3.26,-3.96,6.5
2.2605249881744385,5.35,-1.64,-5.41,7.78
2.269479990005493,6.3,0.64,-6.34,8.96
2.279571056365967,6.3,3.65,-7.04,10.12
2.2895679473876953,5.45,6.72,-7.88,11.7
2.2997398376464844,3.9,8.97,-8.9,13.22
2.3140439987182617,2.99,9.69,-10.52,14.61
2.319838047027588,4.27,7.02,-10.95,13.68
2.33046817779541,5.81,0.28,-9.65,11.26
2.3398549556732178,6.23,-5.63,-12.13,14.75
2.362852096557617,5.24,-5.49,-15.51,17.26
2.3658030033111572,2.7,-1.12,-10.86,11.24
2.3698689937591553,-0.56,0.53,-6.08,6.12
2.38010311126709,-0.77,-0.07,-2.04,2.18
2.3899669647216797,-1.66,4.13,0.96,4.55
2.4009499549865723,-2.73,25.34,17.58,30.96
2.414383888244629,-4.38,38.05,30.34,48.86
2.4200899600982666,-11.06,15.18,1.61,18.85
2.434403896331787,3.54,-7.36,-13.59,15.85
2.4400768280029297,17.42,-20.35,-16.15,31.27
2.45989990234375,21.12,-24.59,-26.01,41.56
2.462862968444824,13.88,-13.62,-39.43,43.96
2.4704580307006836,9.9,-3.36,-35.11,36.63
2.4803240299224854,10.53,3.2,-16.45,19.79
2.4906201362609863,8.5,9.85,-0.17,13.01
2.500454902648926,-0.55,14.71,5.32,15.65
2.514441967010498,-7.34,10.19,5.94,13.89
2.5205678939819336,-6.8,-0.44,4.04,7.92
2.531136989593506,-5.45,-6.13,-2.44,8.55
2.545775890350342,-2.89,-5.95,-7.5,10.0
2.5598511695861816,0.57,-2.46,-7.62,8.02
2.5624849796295166,2.1,1.5,-6.08,6.6
2.570549964904785,1.19,3.2,-4.11,5.34
2.5807230472564697,-0.85,2.47,-1.95,3.25
2.59088397026062,-2.05,0.65,0.67,2.25
2.601470947265625,-2.01,-0.62,2.66,3.39
2.614694118499756,-1.47,-0.63,2.31,2.8
2.620934009552002,-0.45,0.12,0.72,0.85
2.634896993637085,0.81,0.9,-0.28,1.24
2.6409921646118164,1.66,1.0,-0.18,1.94
2.6607251167297363,1.58,0.59,-0.14,1.69
2.6633410453796387,0.89,0.54,-0.22,1.06
2.670844078063965,0.53,1.16,1.15,1.71
2.6808979511260986,0.11,2.12,2.12,3.0
2.691303014755249,-0.78,3.12,1.87,3.72
2.7010278701782227,-1.52,3.64,2.25,4.54
2.7151598930358887,-2.2,3.57,2.97,5.13
2.721156120300293,-3.37,3.39,3.38,5.85
2.731858968734741,-4.52,3.54,4.59,7.35
2.7459909915924072,-5.57,4.38,6.18,9.4
2.760171890258789,-6.22,5.56,6.85,10.79
2.762822151184082,-6.0,6.8,7.53,11.78
2.7714459896087646,-5.71,8.09,7.72,12.55
2.781398057937622,-5.67,9.1,7.75,13.22
2.7914459705352783,-6.14,10.12,8.06,14.32
2.8023180961608887,-6.94,10.81,9.05,15.71
2.8154799938201904,-7.72,11.17,9.7,16.68
2.8220949172973633,-8.53,12.2,8.77,17.27
2.835245132446289,-11.85,15.67,6.26,20.61
2.841960906982422,-17.19,20.1,3.73,26.7
2.8665809631347656,-19.22,21.55,2.73,29.0
2.8707809448242188,-18.89,18.91,1.4,26.76
2.8746700286865234,-14.84,13.53,2.06,20.18
2.881732940673828,-8.89,7.91,2.54,12.16
2.8917629718780518,-4.37,4.05,-0.67,5.99
2.9015209674835205,-1.53,3.18,-5.9,6.87
2.9120278358459473,0.46,4.11,-6.84,7.99
2.9216818809509277,3.32,5.06,-0.97,6.12
2.932000160217285,4.55,4.86,2.06,6.96
2.94195294380188,2.87,2.31,-0.37,3.7
2.9623639583587646,0.44,-0.86,-3.21,3.35
2.9650158882141113,-0.65,-3.13,-3.44,4.69
2.971923828125,0.46,-4.58,-0.39,4.61
2.9821481704711914,2.14,-5.38,3.48,6.75
2.992069959640503,1.89,-5.64,5.11,7.84
3.0020289421081543,0.25,-5.46,4.55,7.11
3.0128300189971924,-0.86,-5.18,4.48,6.9
3.022742986679077,-1.18,-5.26,5.08,7.4
3.0361108779907227,-0.75,-5.35,5.46,7.68
3.0425291061401367,0.37,-5.01,5.21,7.23
3.065776824951172,1.69,-4.43,3.75,6.04
3.068420886993408,2.88,-3.77,1.89,5.1
3.072252035140991,3.8,-2.82,0.14,4.73
3.082584857940674,4.5,-1.21,-1.38,4.85
3.092360019683838,5.05,0.59,-1.96,5.44
3.102537155151367,5.16,3.22,-3.28,6.91
3.11635684967041,4.71,5.95,-5.2,9.19
3.1224939823150635,4.29,6.99,-7.06,10.82
3.1366028785705566,4.13,6.55,-8.43,11.44
3.14247989654541,4.42,4.94,-8.27,10.59
3.162057876586914,5.94,3.82,-10.01,12.25
3.1649670600891113,8.29,1.93,-14.76,17.03
3.1724369525909424,10.16,-2.08,-17.22,20.1
3.1828041076660156,9.75,-5.26,-15.38,18.95
3.192966938018799,5.9,-4.34,-14.18,15.95
3.2033090591430664,2.36,-2.11,-11.41,11.84
3.2163138389587402,0.7,-0.19,-9.14,9.16
3.2232718467712402,0.05,3.89,-9.0,9.8
3.237123966217041,-1.42,16.81,-4.76,17.52
3.2439870834350586,1.16,30.33,10.68,32.17
3.266270160675049,0.31,15.84,1.75,15.93
3.270002841949463,3.96,-5.47,-13.96,15.5
3.272969961166382,13.5,-17.01,-13.31,25.47
3.2830119132995605,18.62,-19.13,-16.68,31.47
3.2936911582946777,15.03,-8.68,-28.02,32.96
3.3032350540161133,11.97,1.71,-27.77,30.28
3.313961982727051,11.25,8.35,-15.79,21.1
3.3231329917907715,7.5,10.96,-4.4,13.99
3.337455987930298,-0.75,9.66,1.63,9.82
3.3432400226593018,-7.42,3.96,4.37,9.47
3.36457896232605,-9.27,-3.53,3.31,10.45
3.3675429821014404,-7.51,-6.17,-1.41,9.82
3.373234987258911,-2.98,-2.86,-4.02,5.76
3.383439064025879,0.82,1.33,-4.66,4.91
3.3934268951416016,2.78,2.93,-4.14,5.78
3.4032511711120605,2.13,1.85,-2.4,3.7
3.4137020111083984,-0.36,0.11,-0.24,0.44
3.424302101135254,-2.63,-0.92,1.99,3.42
3.4372501373291016,-4.02,-0.55,2.75,4.9
3.444211959838867,-3.69,0.54,2.5,4.48
3.4675259590148926,-2.09,1.12,2.1,3.16
3.4712438583374023,-0.83,0.98,0.85,1.54
3.4736499786376953,-0.42,0.76,-0.35,0.93
3.4836931228637695,-0.63,0.94,-0.03,1.13
3.4939889907836914,-1.23,1.41,1.52,2.41
3.503618001937866,-1.87,1.97,2.03,3.39
3.5143330097198486,-2.0,2.67,2.34,4.07
3.528069019317627,-1.89,3.04,3.37,4.91
3.534029006958008,-2.69,3.06,4.23,5.87
3.5480918884277344,-4.13,3.33,4.68,7.07
3.561704158782959,-5.3,4.31,5.52,8.78
3.564365863800049,-5.98,5.49,5.89,10.02
3.5743579864501953,-5.81,6.39,6.24,10.65
3.58392596244812,-5.1,6.98,7.05,11.15
3.5944230556488037,-4.57,7.43,8.06,11.87
3.6093931198120117,-4.52,7.59,8.94,12.56
3.6142520904541016,-5.48,7.73,9.85,13.66
3.6275880336761475,-6.99,8.11,10.49,14.98
3.6348910331726074,-8.13,8.67,10.42,15.8
3.6481809616088867,-9.21,10.28,8.55,16.23
3.664746046066284,-12.1,14.14,5.5,19.4
3.6674129962921143,-15.04,18.52,3.69,24.14
3.675112009048462,-16.26,20.56,2.29,26.31
3.684566020965576,-16.34,18.0,0.76,24.32
3.694535970687866,-12.93,12.5,1.29,18.03
3.7050018310546875,-7.68,6.93,2.74,10.7
3.719025135040283,-5.66,3.86,-2.29,7.22
3.725085973739624,-4.4,2.6,-7.53,9.1
3.7388999462127686,-1.39,2.24,-7.01,7.48
3.7446489334106445,1.78,3.02,-2.77,4.46
3.76478910446167,2.82,2.66,0.18,3.88
3.768444061279297,1.1,0.43,-0.84,1.44
3.774739980697632,-1.68,-1.78,-2.82,3.73
3.7847070693969727,-3.03,-3.54,-2.51,5.29
3.7989768981933594,-2.68,-4.8,0.11,5.49
3.8047540187835693,-2.02,-5.38,3.16,6.55
3.8190770149230957,-2.12,-5.42,5.14,7.76
3.824799060821533,-3.24,-5.12,5.69,8.31
3.8354170322418213,-4.53,-5.01,5.31,8.59
3.8448381423950195,-4.77,-5.16,4.52,8.35
3.867919921875,-3.65,-4.99,3.35,7.03
3.8709590435028076,-1.75,-4.05,1.75,4.74
3.8750720024108887,0.33,-2.67,-0.08,2.69
3.885014057159424,2.39,-1.38,-2.55,3.75
3.8950071334838867,4.57,-0.54,-5.09,6.86
3.9051849842071533,6.74,-0.01,-6.83,9.59
3.9153740406036377,8.3,0.12,-8.23,11.68
3.9258370399475098,8.94,-0.51,-10.46,13.76
3.9352400302886963,9.43,-1.34,-12.15,15.43
3.949099063873291,9.76,-1.24,-12.47,15.88
3.9650321006774902,9.32,2.13,-11.17,14.7
3.9676849842071533,7.57,8.42,-7.14,13.38
3.9754140377044678,4.42,11.02,-2.82,12.2
3.985569953918457,2.12,4.33,-0.63,4.86
3.995398998260498,1.6,-4.14,-2.56,5.12
4.0052571296691895,1.1,-5.1,-6.78,8.55
4.021641969680786,2.59,-1.17,-7.22,7.75
4.025572061538696,4.48,0.41,-6.46,7.87
4.027984142303467,4.14,0.25,-6.12,7.39
4.038175106048584,4.05,1.82,-7.42,8.64
4.0561628341674805,2.12,13.09,-2.0,13.41
4.0588459968566895,3.29,30.76,15.9,34.78
4.06767201423645,-1.93,21.8,7.99,23.29
4.078048944473267,0.31,1.45,-9.17,9.28
4.087818145751953,10.44,-13.22,-10.25,19.71
4.09853982925415,14.15,-21.04,-17.92,31.04
4.108645915985107,12.39,-15.76,-28.66,34.97
4.122622013092041,11.26,-6.11,-29.51,32.17
4.128087997436523,11.5,0.55,-20.51,23.52
4.142971038818359,9.95,7.2,-10.0,15.83
4.155995845794678,5.93,11.78,-1.98,13.33
4.158599853515625,1.01,10.09,3.15,10.61
4.168242931365967,-2.81,4.0,3.42,5.96
4.178231954574585,-5.29,-1.74,-0.17,5.57
4.188246011734009,-5.39,-4.81,-3.48,8.01
4.198207855224609,-2.92,-4.07,-4.04,6.43
4.20887303352356,-0.76,-1.26,-3.52,3.81
4.218078136444092,0.47,0.94,-2.44,2.65
4.232105016708374,0.75,1.65,-1.12,2.13
4.239025115966797,0.09,1.42,-0.05,1.42
4.260673999786377,-0.64,0.86,1.05,1.5
4.263462066650391,-1.0,0.37,1.71,2.01
4.268378973007202,-1.18,0.31,1.07,1.62
4.27838397026062,-1.19,0.65,0.41,1.41
4.2883100509643555,-1.34,1.07,0.1,1.71
4.299252033233643,-1.83,1.43,0.59,2.39
4.3126380443573,-2.56,1.52,2.32,3.77
4.3193089962005615,-3.35,1.18,3.54,5.01
4.3343400955200195,-3.6,0.94,3.3,4.97
4.3387229442596436,-2.56,1.42,3.68,4.7
4.3622541427612305,-1.96,2.26,4.05,5.03
4.365273952484131,-2.68,2.65,3.98,5.48
4.368613958358765,-4.3,3.23,4.19,6.81
4.378821849822998,-5.66,4.47,5.39,9.0
4.388713836669922,-6.28,5.9,5.73,10.34
4.398858070373535,-6.38,7.3,5.29,11.04
4.4134910106658936,-6.45,8.38,6.33,12.32
4.418981075286865,-7.28,8.65,7.45,13.53
4.432990074157715,-8.34,8.55,7.81,14.27
4.4390411376953125,-8.66,8.67,7.82,14.53
4.458590030670166,-8.26,9.34,6.79,14.19
4.4615559577941895,-7.61,10.69,5.7,14.3
4.468964099884033,-8.85,13.7,5.07,17.07
4.4791810512542725,-10.74,17.0,4.76,20.66
4.489145040512085,-10.92,19.53,3.78,22.69
4.499247074127197,-11.63,20.0,1.51,23.18
4.513352870941162,-11.94,16.93,0.68,20.72
4.519412994384766,-10.9,11.8,4.84,16.77
4.529937982559204,-8.72,5.92,8.15,13.32
4.539312839508057,-8.92,2.4,1.99,9.44
4.56270694732666,-7.93,0.52,-3.27,8.59
4.566411018371582,-5.05,0.26,-3.74,6.28
4.569322109222412,-1.34,1.05,-1.39,2.19
4.579447031021118,0.71,1.54,-0.61,1.8
4.5894598960876465,0.97,0.36,-2.46,2.66
4.600293159484863,1.19,-1.8,-5.21,5.63
4.618806838989258,3.7,-3.77,-2.89,6.02
4.624729156494141,4.99,-4.28,1.11,6.66
4.637305974960327,3.78,-4.87,3.01,6.86
4.644505977630615,1.24,-5.22,3.02,6.15
4.666019916534424,-0.87,-5.71,3.03,6.52
4.669766902923584,-2.0,-6.59,3.08,7.54
4.674002170562744,-1.9,-7.39,3.26,8.29
4.6838459968566895,-0.97,-7.1,3.75,8.08
4.694069862365723,0.17,-5.96,3.25,6.79
4.704664945602417,1.58,-5.01,1.25,5.39
4.718204975128174,3.23,-4.64,-1.32,5.8
4.724400997161865,4.85,-4.41,-3.73,7.54
4.7347588539123535,6.26,-3.73,-6.15,9.53
4.749230861663818,7.33,-2.25,-8.76,11.64
4.7637779712677,7.65,-0.83,-10.4,12.93
4.766476154327393,7.43,-0.29,-10.09,12.53
4.774461984634399,7.52,-0.52,-7.77,10.82
4.784333944320679,7.2,0.11,-7.46,10.36
4.79449987411499,6.69,3.2,-8.83,11.53
4.805224895477295,5.78,7.17,-8.62,12.61
4.818511962890625,4.94,8.67,-3.25,10.49
4.824747085571289,4.77,4.77,3.21,7.47
4.839539051055908,4.55,-1.8,0.58,4.92
4.8446478843688965,5.69,-5.23,-5.7,9.6
4.863709926605225,8.3,-3.37,-5.89,10.72
4.8666090965271,8.82,0.47,-7.54,11.61
4.874675035476685,5.94,5.47,-10.49,13.23
4.885050058364868,-4.07,17.09,-7.93,19.27
4.894874095916748,-4.19,22.87,11.5,25.93
4.905633926391602,-2.63,14.02,14.07,20.03
4.91890287399292,2.47,0.4,9.21,9.54
4.925397872924805,7.21,-8.43,1.45,11.18
4.93545389175415,7.29,-10.29,-14.74,19.39
4.945641994476318,8.58,-9.82,-25.56,28.69
4.966565132141113,11.02,-6.58,-26.31,29.27
4.969624996185303,12.44,-1.29,-21.64,24.99
4.975064992904663,11.49,3.19,-14.27,18.59
4.985368967056274,8.15,5.75,-7.27,12.34
4.995192050933838,3.47,6.5,-1.9,7.6
5.004941940307617,-1.54,5.2,1.86,5.73
5.0159759521484375,-6.11,2.07,3.31,7.25
5.029015064239502,-7.61,-1.68,4.3,8.9
5.036062955856323,-5.58,-3.56,3.7,7.58
5.049365997314453,-2.44,-3.1,1.07,4.08
5.063643932342529,0.71,-1.98,-0.97,2.31
5.0662431716918945,2.9,-0.67,-1.83,3.49
5.0754289627075195,3.53,0.46,-1.65,3.92
5.085265159606934,2.56,1.13,-0.83,2.91
5.095679998397827,0.61,1.23,0.76,1.56
5.105373859405518,-1.82,1.16,2.28,3.13
5.119504928588867,-3.93,0.97,2.81,4.92
5.125552177429199,-4.2,0.45,2.33,4.82
5.136047840118408,-2.61,0.28,1.66,3.1
5.145721912384033,-0.6,0.8,0.01,1.0
5.167875051498413,0.77,1.4,-1.17,1.98
5.170928001403809,0.93,1.76,-0.49,2.05
5.17575216293335,-0.59,1.6,-0.2,1.71
5.185701847076416,-2.77,1.84,1.03,3.48
5.195879936218262,-4.12,2.55,3.69,6.09
5.205746173858643,-4.91,2.62,4.39,7.08
5.219645023345947,-4.83,2.76,3.74,6.7
5.226709842681885,-4.17,4.35,4.06,7.26
5.24097204208374,-4.77,6.29,4.24,8.96
5.245857000350952,-6.2,7.42,4.56,10.69
5.269474029541016,-7.01,8.2,6.53,12.61
5.2721781730651855,-6.92,8.53,8.46,13.86
5.275923013687134,-6.52,8.33,9.62,14.29
5.286129951477051,-6.26,8.46,9.8,14.38
5.296051979064941,-5.68,9.1,9.26,14.17
5.306151866912842,-5.66,10.79,7.73,14.42
5.316993951797485,-7.85,14.91,5.41,17.69
5.330450057983398,-8.22,18.9,5.0,21.2
5.337319850921631,-6.87,20.59,3.09,21.92
5.349895000457764,-7.24,18.99,0.79,20.33
5.366743087768555,-7.3,14.4,1.33,16.19
5.369726181030273,-7.8,10.17,3.94,13.4
5.376320838928223,-7.56,6.04,6.49,11.65
5.386512994766235,-6.11,1.91,3.33,7.21
5.396515846252441,-5.01,0.06,-2.38,5.54
5.406495094299316,-2.93,1.06,-3.86,4.96
5.417191982269287,0.56,2.38,-0.03,2.44
5.430279016494751,2.37,2.42,2.12,3.99
5.437320947647095,1.77,0.69,0.17,1.9
5.450766086578369,0.33,-1.45,-3.33,3.64
5.467151165008545,0.15,-3.24,-4.47,5.52
5.470849990844727,1.79,-4.43,-2.2,5.26
5.476675987243652,3.65,-4.91,1.33,6.26
5.486806869506836,3.57,-5.1,3.33,7.06
5.496817111968994,1.46,-5.62,4.0,7.05
5.507400035858154,-0.63,-6.41,4.78,8.02
5.517608165740967,-2.16,-7.33,5.57,9.45
5.530754089355469,-3.27,-8.11,5.97,10.58
5.537387847900391,-3.54,-8.19,5.66,10.56
5.550627946853638,-2.53,-7.29,4.89,9.13
5.56511116027832,-0.66,-5.88,3.6,6.92
5.568817138671875,1.31,-4.49,1.53,4.92
5.576962947845459,3.16,-3.36,-1.0,4.71
5.58693790435791,4.9,-2.21,-3.41,6.36
5.597517967224121,6.51,-0.46,-5.74,8.69
5.611454963684082,7.45,1.27,-7.11,10.37
5.617861032485962,7.49,2.28,-7.19,10.62
5.6311750411987305,7.0,2.47,-6.46,9.84
5.637397050857544,6.01,2.86,-7.13,9.75
5.651468992233276,5.47,6.3,-9.98,13.0
5.664957046508789,6.64,11.79,-13.05,18.79
5.667966842651367,7.2,9.76,-13.83,18.39
5.677495002746582,6.57,-0.4,-9.55,11.59
5.68729305267334,2.01,-7.73,-10.05,12.83
5.697643995285034,-1.44,-5.65,-7.28,9.32
5.707658052444458,-1.7,0.7,-3.01,3.52
5.718174934387207,0.42,2.8,-0.01,2.83
5.73140811920166,2.34,3.08,2.85,4.8
5.738316059112549,-2.28,12.39,5.89,13.9
5.751400947570801,-5.55,24.02,15.74,29.24
5.767071008682251,-4.49,17.16,14.96,23.2
5.770050048828125,-2.28,2.87,-6.07,7.09
5.777666091918945,7.6,-9.34,-15.56,19.67
5.787846088409424,16.08,-16.17,-19.55,30.03
5.797770023345947,16.31,-14.51,-27.27,34.93
5.808102130889893,11.67,-5.58,-31.9,34.42
5.822896957397461,12.16,3.49,-23.65,26.82
5.828001976013184,13.97,9.36,-9.51,19.31
5.83835506439209,9.76,9.92,-2.54,14.14
5.851698875427246,3.04,6.93,0.74,7.6
5.867980003356934,-2.21,2.8,2.88,4.58
5.871081829071045,-6.32,-1.68,1.28,6.66
5.878010034561157,-7.64,-4.74,0.57,9.0
5.887959003448486,-5.94,-4.13,0.01,7.23
5.898436069488525,-3.18,-1.17,-1.06,3.55
5.908064842224121,-0.3,0.82,-1.27,1.54
5.918630123138428,1.5,1.29,-1.27,2.35
5.932697057723999,1.76,0.98,-1.01,2.25
5.938828945159912,0.98,0.53,-0.08,1.11
5.95257306098938,-0.33,0.45,1.02,1.16
5.965739011764526,-2.05,0.71,1.34,2.54
5.968425035476685,-3.54,0.74,1.02,3.75
5.978384971618652,-3.9,0.41,0.37,3.93
5.988464832305908,-2.84,0.22,-0.39,2.87
5.998556137084961,-1.22,0.4,-1.16,1.73
6.008631944656372,0.03,0.91,-0.96,1.32
6.019218921661377,0.33,1.42,-0.03,1.45
6.0330328941345215,-0.76,1.56,0.52,1.81
6.039380073547363,-2.35,1.63,0.93,3.0
6.048593044281006,-3.35,1.94,1.91,4.31
6.068406105041504,-3.62,2.36,2.47,4.97
6.072091102600098,-3.3,2.85,3.35,5.49
6.078809022903442,-3.09,3.24,4.82,6.57
6.0890209674835205,-4.0,3.47,5.39,7.55
6.09890604019165,-5.24,4.27,6.22,9.18
6.1094489097595215,-5.88,5.66,7.7,11.22
6.118989944458008,-5.96,6.81,8.68,12.53
6.13267707824707,-5.65,7.37,9.77,13.47
6.139060020446777,-5.74,7.64,10.54,14.22
6.15302300453186,-6.47,7.94,10.55,14.7
6.1668360233306885,-7.03,8.46,9.59,14.59
6.169529914855957,-7.22,9.89,7.63,14.42
6.17896294593811,-9.42,13.97,4.51,17.44
6.188999176025391,-11.02,18.64,3.47,21.93
6.201848983764648,-9.86,21.82,2.69,24.09
6.210240840911865,-9.51,22.4,0.59,24.34
6.223318099975586,-9.61,18.42,0.38,20.77
6.230008125305176,-8.67,12.09,2.39,15.06
6.243290901184082,-5.56,5.71,6.88,10.52
6.2499840259552,-4.43,1.54,3.23,5.69
6.2723798751831055,-4.08,0.26,-3.35,5.28
6.275483131408691,-1.83,0.89,-3.59,4.12
6.279376983642578,1.84,2.69,0.63,3.31
6.289273977279663,3.29,3.11,2.47,5.15
6.2995829582214355,1.99,1.29,0.25,2.38
6.310309886932373,0.29,-0.98,-2.4,2.6
6.324771881103516,0.33,-2.96,-2.39,3.81
6.3295509815216064,1.51,-4.41,-0.49,4.68
6.34441614151001,2.29,-5.28,1.1,5.85
6.34971809387207,2.36,-5.85,2.35,6.73
6.369319915771484,1.79,-6.15,3.88,7.48
6.372925043106079,1.02,-6.56,5.33,8.51
6.379818916320801,0.19,-6.89,5.81,9.01
6.3897809982299805,-0.35,-7.14,5.57,9.06
6.400511980056763,-0.12,-7.35,5.07,8.92
6.4136879444122314,0.9,-7.04,4.47,8.38
6.420762062072754,2.17,-5.96,3.36,7.17
6.433577060699463,3.61,-4.51,1.29,5.91
6.440431118011475,5.07,-2.79,-1.22,5.91
6.453660011291504,6.24,-0.75,-3.26,7.08
6.469972133636475,6.68,1.63,-4.64,8.29
6.4725871086120605,6.47,3.72,-5.21,9.1
6.479994058609009,6.06,5.52,-6.65,10.55
6.490077018737793,5.76,7.63,-9.49,13.47
6.50040602684021,6.52,9.24,-11.75,16.3
6.510197162628174,8.72,7.38,-13.62,17.77
6.525470972061157,9.34,0.16,-16.67,19.1
6.530285835266113,8.85,-5.99,-14.43,17.95
6.541023015975952,4.58,-4.31,-12.94,14.38
6.550299167633057,0.24,0.39,-10.76,10.76
6.571264982223511,-0.37,0.54,-7.5,7.52
6.574076175689697,1.17,-1.71,-7.0,7.3
6.580503940582275,3.79,-1.86,-6.62,7.85
6.590382099151611,1.38,5.78,-2.05,6.28
6.600559949874878,-3.12,22.78,11.05,25.51
6.612192153930664,-4.71,24.17,9.77,26.49
6.625182151794434,-0.79,6.28,-7.05,9.47
6.6304850578308105,10.02,-8.66,-9.97,16.57
6.645416021347046,14.41,-14.19,-11.74,23.38
6.65071702003479,12.01,-9.97,-21.63,26.67
6.670068979263306,9.7,-2.84,-25.89,27.79
6.672814846038818,9.3,2.47,-18.18,20.56
6.680812835693359,6.94,5.45,-8.77,12.44
6.690994024276733,2.01,6.36,-3.05,7.33
6.700891971588135,-2.47,4.72,0.52,5.35
6.711475849151611,-3.97,0.58,2.19,4.57
6.7211480140686035,-3.32,-2.48,1.66,4.46
6.734746932983398,-1.72,-2.39,-0.64,3.01
6.740946054458618,0.31,-0.66,-2.69,2.78
6.755552053451538,1.91,0.81,-3.72,4.25
6.769405841827393,2.53,1.18,-3.41,4.4
6.772061824798584,1.68,0.8,-2.1,2.8
6.781108856201172,-0.14,0.32,0.12,0.36
6.791110992431641,-1.92,0.17,2.23,2.94
6.801213026046753,-3.26,0.4,3.18,4.57
6.815355062484741,-3.52,0.52,2.59,4.4
6.821388006210327,-2.53,0.55,1.22,2.86
6.835262060165405,-1.11,0.7,-0.2,1.32
6.8411641120910645,-0.26,1.15,-1.8,2.15
6.851244926452637,0.08,1.93,-1.85,2.67
6.874969005584717,-0.52,2.76,-0.73,2.9
6.877996921539307,-1.35,2.84,0.6,3.2
6.8813910484313965,-1.96,2.08,3.26,4.33
6.891535997390747,-3.99,1.32,5.65,7.04
6.901499032974243,-7.08,0.81,7.47,10.32
6.912060022354126,-9.49,1.71,7.72,12.35
6.926334857940674,-9.42,4.34,6.31,12.14
6.931524991989136,-6.9,7.04,5.03,11.06
6.945796966552734,-4.64,8.44,3.73,10.32
6.951691150665283,-4.36,8.7,3.61,10.37
6.97161602973938,-5.53,8.52,6.35,11.97
6.974765062332153,-6.73,8.16,9.57,14.26
6.981839179992676,-7.52,8.37,10.06,15.09
6.9918341636657715,-8.15,10.71,8.45,15.89
7.0020551681518555,-9.23,14.03,7.71,18.47
7.012074947357178,-10.02,16.02,7.54,20.34
7.026279926300049,-11.52,17.08,4.81,21.15
7.033118963241577,-11.27,17.06,2.38,20.58
7.046090126037598,-11.71,16.17,0.58,19.97
7.052600860595703,-11.85,13.21,1.68,17.82
7.074252128601074,-9.86,9.06,7.15,15.17
7.07701301574707,-8.52,5.11,7.12,12.22
7.082035064697266,-8.31,2.62,0.52,8.72
7.092194080352783,-6.17,1.19,-3.6,7.24
7.102071046829224,-2.6,1.39,-2.72,4.01
7.1129560470581055,0.95,2.76,-0.2,2.92
7.126616954803467,2.12,3.01,0.33,3.69
7.132455825805664,1.04,1.33,-1.72,2.41
7.146586894989014,0.18,-0.95,-3.85,3.96
7.152317047119141,0.85,-2.83,-3.6,4.65
7.172310829162598,2.0,-4.04,-1.55,4.76
7.175441026687622,2.27,-4.96,0.6,5.48
7.182523012161255,1.32,-5.58,2.24,6.15
7.1923699378967285,-0.39,-5.83,3.21,6.66
7.2028350830078125,-1.95,-6.29,4.06,7.73
7.212565898895264,-2.69,-7.05,4.79,8.93
7.223042964935303,-2.58,-7.49,4.89,9.3
7.237184047698975,-1.8,-6.87,4.01,8.15
7.243288993835449,-0.34,-5.24,2.06,5.64
7.25831413269043,1.69,-3.25,-0.89,3.76
7.272790908813477,4.24,-1.48,-2.77,5.27
7.275385856628418,6.35,0.03,-3.48,7.24
7.282770156860352,7.25,1.46,-5.58,9.26
7.292725086212158,7.05,2.43,-8.35,11.19
7.302884101867676,7.07,2.59,-8.78,11.56
7.312848091125488,7.6,3.16,-7.09,10.86
7.322901010513306,6.68,5.9,-6.9,11.27
7.333047866821289,4.21,8.96,-8.28,12.9
7.347416877746582,2.98,7.57,-10.17,13.02
7.353639125823975,2.91,1.54,-12.3,12.73
7.371438980102539,2.46,-4.48,-12.58,13.57
7.37407112121582,1.46,-5.54,-12.61,13.85
7.382989883422852,0.79,-2.24,-12.29,12.51
7.393033981323242,1.75,1.34,-9.45,9.7
7.403409957885742,-0.23,10.41,-7.21,12.66
7.413838863372803,-2.8,30.97,6.91,31.85
7.4271299839019775,-3.8,31.07,18.53,36.37
7.433846950531006,-4.0,6.41,1.55,7.71
7.447126865386963,7.05,-13.92,-6.2,16.79
7.454154014587402,13.58,-23.11,-16.52,31.48
7.475121974945068,15.8,-17.93,-29.61,38.05
7.478135108947754,15.2,-6.08,-35.04,38.67
7.483686923980713,15.04,1.73,-26.83,30.8
7.4933459758758545,13.26,8.69,-13.55,20.85
7.503633975982666,6.92,12.82,-2.83,14.84
7.514717102050781,-2.07,10.54,3.48,11.29
7.524328947067261,-7.99,2.3,4.64,9.52
7.5342888832092285,-9.03,-5.59,2.35,10.87
7.547563076019287,-6.04,-7.07,-1.72,9.45
7.5541510581970215,-1.13,-3.04,-3.42,4.71
7.576872825622559,2.4,1.49,-4.19,5.05
7.580613136291504,3.57,3.4,-4.3,6.54
7.583578109741211,2.23,2.15,-3.23,4.47
7.59383487701416,-0.25,-0.13,-1.07,1.1
7.603808879852295,-2.61,-1.26,0.81,3.0
7.6177568435668945,-4.05,-0.66,1.76,4.46
7.623973846435547,-4.24,0.86,2.34,4.91
7.634553909301758,-3.61,1.59,2.32,4.57
7.6489081382751465,-2.5,0.75,1.7,3.11
7.654612064361572,-1.57,-0.19,0.79,1.76
7.67507004737854,-1.34,0.0,0.64,1.48
7.6778740882873535,-1.68,0.85,1.34,2.31
7.683995962142944,-1.95,1.38,2.1,3.18
7.694275856018066,-1.74,1.36,1.97,2.95
7.704196929931641,-0.91,1.33,1.36,2.1
7.714242935180664,-0.16,1.71,0.74,1.87
7.725175857543945,-0.06,2.2,0.79,2.33
7.738885879516602,-1.05,2.58,2.39,3.67
7.745119094848633,-3.33,2.85,4.4,6.21
7.759294033050537,-5.72,3.3,6.43,9.21
7.772436141967773,-7.26,4.08,7.56,11.24
7.775087833404541,-7.23,4.72,7.5,11.43
7.784759998321533,-6.02,5.67,6.3,10.39
7.794587135314941,-4.36,6.74,5.53,9.74
7.804641008377075,-3.43,7.38,5.6,9.87
7.814573049545288,-3.62,7.57,6.19,10.42
7.828649044036865,-4.57,7.63,6.96,11.29
7.834396839141846,-5.56,7.89,7.53,12.24
7.845536947250366,-6.85,9.2,7.18,13.53
7.854629039764404,-9.47,12.41,6.1,16.76
7.8767030239105225,-13.72,17.22,4.24,22.42
7.879714012145996,-16.1,21.16,2.86,26.74
7.885061979293823,-17.67,21.91,0.86,28.16
7.895269870758057,-18.04,18.11,0.13,25.56
7.904747009277344,-15.22,12.28,1.63,19.62
7.914991855621338,-10.46,6.36,1.86,12.38
7.925690174102783,-7.79,3.42,-2.91,8.99
7.935664176940918,-4.76,2.62,-5.92,8.03
7.949048042297363,-0.96,3.49,-4.75,5.97
7.954998016357422,3.9,5.65,-0.56,6.88
7.977851867675781,6.37,6.57,1.14,9.22
7.981565952301025,4.8,4.94,-1.21,6.99
7.985086917877197,2.63,1.53,-2.47,3.91
7.995239019393921,1.71,-2.02,-1.12,2.87
8.0050790309906,0.59,-4.85,0.58,4.92
8.021164894104004,-1.1,-6.9,1.15,7.08
8.026183128356934,-2.68,-7.99,0.74,8.45
8.031611919403076,-2.36,-8.47,0.41,8.8
8.041078090667725,-3.14,-8.44,-0.54,9.02
8.051713943481445,-2.48,-7.74,-0.93,8.18
8.073776960372925,-0.26,-6.86,-0.2,6.86
8.076938152313232,1.71,-5.85,-0.28,6.1
8.081215858459473,2.56,-4.88,-1.52,5.71
8.091630935668945,3.04,-4.34,-2.58,5.89
8.101343154907227,3.8,-3.96,-2.89,6.2
8.111271858215332,4.55,-3.02,-3.19,6.32
8.122129917144775,4.94,-1.22,-3.44,6.14
8.135288953781128,4.32,1.63,-5.04,6.83
8.142099857330322,3.59,4.58,-7.6,9.57
8.155763149261475,4.43,6.36,-10.77,13.26
8.169836044311523,5.72,7.42,-14.71,17.44
8.172497987747192,8.33,8.09,-15.12,19.06
8.181583881378174,10.87,5.71,-14.9,19.3
8.191670894622803,10.78,-0.5,-15.36,18.77
8.201600074768066,9.12,-5.16,-13.58,17.15
8.21223783493042,4.62,-3.17,-12.47,13.67
8.222305059432983,0.01,1.47,-8.54,8.66
8.235476016998291,-2.1,2.55,-4.45,5.54
8.242202043533325,-1.22,0.81,-2.91,3.25
8.256407976150513,-0.32,0.59,-5.07,5.11
8.270348072052002,-8.3,15.23,-8.73,19.41
8.272985935211182,-10.19,42.77,3.3,44.09
8.281924962997437,5.09,31.82,21.48,38.72
8.291983127593994,7.3,-1.12,8.3,11.11
8.301950931549072,5.6,-22.55,-5.81,23.95
8.312777996063232,7.03,-34.21,-20.36,40.42
8.32214903831482,5.87,-20.63,-33.74,39.98
8.336220979690552,6.0,-6.01,-36.12,37.1
8.343698978424072,12.22,0.54,-23.34,26.35
8.352885961532593,17.64,8.72,-6.23,20.64
8.372270107269287,10.68,13.36,-1.08,17.13
8.374894142150879,-0.12,11.36,3.44,11.87
8.382451057434082,-6.74,5.35,6.72,10.91
8.392254829406738,-9.39,-1.97,6.57,11.62
8.40226697921753,-7.33,-4.99,5.53,10.45
8.413011074066162,-3.34,-2.96,2.45,5.09
8.42608904838562,0.27,-0.5,-1.41,1.52
8.43320894241333,2.64,0.69,-3.98,4.82
8.446400165557861,3.53,0.49,-4.2,5.5
8.453258991241455,2.88,-0.31,-2.62,3.9
8.475236892700195,1.08,-0.81,-0.69,1.51
8.4789400100708,-0.82,-0.93,0.64,1.39
8.482483863830566,-2.16,-0.79,1.01,2.51
8.492694854736328,-2.49,-0.51,0.58,2.6
8.503253936767578,-1.71,-0.12,-0.3,1.74
8.516593933105469,-0.31,0.32,-1.09,1.17
8.523440837860107,1.13,0.42,-0.93,1.52
8.533416032791138,2.0,0.11,-0.5,2.06
8.54754900932312,1.85,-0.21,-0.39,1.9
8.553500175476074,0.93,-0.33,0.03,0.98
8.572166919708252,-0.42,-0.09,1.02,1.1
8.575042963027954,-1.89,0.23,1.9,2.68
8.582892894744873,-3.22,0.38,2.47,4.07
8.592895984649658,-4.29,0.63,2.86,5.19
8.603080034255981,-4.69,0.61,2.81,5.5
8.613515853881836,-4.8,0.01,1.87,5.15
8.628458976745605,-3.7,-0.19,1.67,4.06
8.633648872375488,-3.1,1.08,1.37,3.55
8.647385120391846,-3.26,2.1,1.74,4.25
8.653753995895386,-3.56,1.59,3.06,4.95
8.674958944320679,-4.98,1.13,4.68,6.92
8.677988052368164,-7.44,1.52,6.35,9.89
8.683586120605469,-9.93,2.08,7.19,12.43
8.693839073181152,-11.06,2.27,6.68,13.11
8.703588962554932,-9.8,2.24,4.68,11.08
8.71411395072937,-6.45,2.33,2.91,7.44
8.724626064300537,-2.84,2.8,1.85,4.39
8.737951040267944,-0.14,4.45,1.49,4.69
8.744603157043457,0.7,8.33,-0.11,8.36
8.758965969085693,-2.78,16.83,-1.21,17.1
8.774304866790771,-7.14,28.1,6.08,29.62
8.776957035064697,-11.76,35.56,9.97,38.75
8.784553050994873,-15.43,32.12,7.11,36.33
8.794425964355469,-14.07,21.14,8.45,26.76
8.804183006286621,-15.18,13.08,10.37,22.56
8.813995838165283,-15.7,6.33,10.89,20.12
8.825122833251953,-12.36,0.54,7.9,14.67
8.839436054229736,-8.26,-0.29,-1.86,8.47
8.844472885131836,-3.64,2.37,-5.85,7.28
8.86011004447937,1.3,4.29,-3.63,5.76
8.872019052505493,4.52,2.91,-4.06,6.73
8.874575138092041,3.53,0.6,-8.59,9.3
8.884634017944336,1.25,-0.75,-11.66,11.75
8.894445896148682,1.9,-2.74,-9.2,9.78
8.905287027359009,3.49,-5.02,-4.3,7.47
8.918251991271973,2.1,-6.31,-1.7,6.86
8.92441201210022,-1.26,-6.79,-0.44,6.91
8.939749002456665,-3.92,-7.11,1.86,8.32
8.944737911224365,-5.33,-7.27,4.77,10.19
8.95521593093872,-6.19,-6.82,7.08,11.61
8.972033977508545,-6.43,-5.55,7.98,11.65
8.974663019180298,-5.47,-3.68,7.52,10.0
8.984777927398682,-3.45,-2.0,5.54,6.82
8.994924068450928,-0.65,-0.57,1.66,1.87
9.00474214553833,2.7,0.96,-3.05,4.18
9.019049167633057,6.19,2.43,-6.04,8.98
9.024835109710693,9.12,3.81,-7.03,12.12
9.03548288345337,9.51,3.86,-9.28,13.83
9.045577049255371,8.8,2.08,-11.38,14.53
9.05977487564087,9.01,-0.4,-11.3,14.45
9.07348108291626,9.37,-0.72,-11.34,14.72
9.076199054718018,9.26,2.91,-11.63,15.14
9.084923028945923,8.36,7.74,-11.13,15.92
9.09504508972168,6.69,7.53,-9.48,13.83
9.10549783706665,4.83,1.56,-6.51,8.25
9.115180015563965,3.4,-3.64,-5.44,7.37
9.129215002059937,3.48,-4.61,-6.94,9.02
9.135355949401855,5.72,-2.96,-8.36,10.55
9.145657062530518,8.22,-1.8,-8.98,12.3
9.159877061843872,9.69,-0.84,-8.43,12.87
9.173831939697266,7.79,7.47,-1.39,10.88
9.177055835723877,1.41,31.24,12.91,33.83
9.185374975204468,-3.9,31.13,12.56,33.79
9.195559024810791,-1.97,3.57,-2.84,4.96
9.205357074737549,7.19,-12.59,-6.05,15.71
9.215723991394043,11.53,-20.66,-13.46,27.22
9.226356983184814,12.59,-18.14,-26.8,34.72
9.236062049865723,13.4,-6.17,-29.47,32.95
9.24988603591919,14.17,3.7,-20.06,24.83
9.255532026290894,11.22,10.59,-11.03,18.96
9.275679111480713,4.91,13.41,-4.29,14.91
9.278691053390503,-1.33,8.89,1.36,9.09
9.28557300567627,-6.42,1.38,3.77,7.57
9.295922994613647,-9.46,-4.24,3.22,10.85
9.305888175964355,-7.88,-5.33,1.04,9.57
9.315899848937988,-3.33,-2.1,-1.28,4.13
9.326581954956055,0.68,1.09,-3.24,3.48
9.336724996566772,2.98,1.98,-4.42,5.68
9.349790096282959,3.79,1.05,-3.54,5.29
9.355934143066406,2.99,-0.24,-1.7,3.44
9.378652095794678,1.04,-0.58,-0.09,1.19
9.381321907043457,-1.01,-0.22,1.08,1.49
9.385830879211426,-2.74,0.28,1.4,3.08
9.396332025527954,-3.66,0.48,1.14,3.86
9.40591287612915,-3.43,0.3,0.7,3.51
9.41707706451416,-2.37,-0.06,-0.02,2.37
9.430060863494873,-1.08,-0.27,-0.71,1.32
9.436798095703125,-0.22,0.07,-0.39,0.45
9.450109004974365,-0.39,0.94,0.96,1.39
9.456295013427734,-1.59,1.78,2.51,3.46
9.475680828094482,-3.05,2.15,4.34,5.72
9.478296041488647,-4.42,2.01,5.2,7.11
9.486140966415405,-5.34,1.64,4.83,7.38
9.496597051620483,-5.69,1.62,4.31,7.31
9.506417036056519,-6.13,2.11,4.01,7.62
9.517044067382812,-6.6,3.27,4.19,8.47
9.530614852905273,-6.98,4.77,4.22,9.44
9.537312984466553,-6.94,5.77,3.91,9.83
9.550465106964111,-6.32,6.36,4.79,10.16
9.556703090667725,-5.29,6.7,6.94,11.0
9.576241970062256,-4.01,6.6,8.95,11.82
9.578874111175537,-3.25,6.7,9.12,11.77
9.586549043655396,-3.65,8.05,7.73,11.74
9.596860885620117,-5.36,10.27,7.74,13.93
9.60697317123413,-7.25,12.23,8.57,16.6
9.616875171661377,-9.23,14.32,8.21,18.91
9.630174160003662,-9.46,15.77,7.87,20.0
9.637948989868164,-8.34,15.78,5.65,18.72
9.650529861450195,-6.46,14.32,2.88,15.97
9.657657146453857,-6.19,13.55,1.35,14.95
9.679617881774902,-5.84,11.92,4.17,13.91
9.6822669506073,-4.3,8.36,4.39,10.37
9.687103033065796,-2.82,5.13,1.51,6.04
9.697197914123535,-0.91,3.42,0.74,3.61
9.707149982452393,0.62,3.21,1.02,3.42
9.717252969741821,1.13,2.48,-0.23,2.73
9.731132984161377,0.44,0.84,-2.72,2.88
9.738101959228516,0.32,-0.96,-4.06,4.18
9.751320838928223,1.11,-2.2,-4.17,4.84
9.757287979125977,2.32,-2.61,-2.51,4.3
9.780895948410034,3.73,-2.84,0.57,4.72
9.78353500366211,3.76,-3.35,2.71,5.71
9.787507057189941,1.68,-4.21,3.01,5.44
9.797456979751587,-0.46,-5.38,3.44,6.4
9.8073410987854,-1.84,-6.93,4.36,8.39
9.817875862121582,-2.62,-8.14,5.08,9.94
9.831871032714844,-2.71,-8.41,5.13,10.21
9.837749004364014,-1.86,-7.77,4.26,9.05
9.851516008377075,-0.03,-6.73,2.72,7.25
9.857646942138672,2.11,-5.59,0.46,5.99
9.877399921417236,4.01,-4.57,-1.89,6.36
9.880020141601562,5.67,-3.52,-3.83,7.69
9.8876371383667,6.78,-2.54,-5.61,9.15
9.898076057434082,7.06,-1.79,-7.38,10.36
9.907987117767334,6.67,-1.05,-8.56,10.9
9.917892932891846,6.25,-0.62,-7.75,9.97
9.931933879852295,6.23,1.02,-6.47,9.03
9.937872886657715,6.06,5.79,-7.22,11.06
9.951602935791016,5.41,11.11,-8.06,14.75
9.958559036254883,5.17,9.77,-7.43,13.31
9.980841159820557,4.8,1.54,-7.79,9.27
9.983498096466064,2.91,-4.77,-9.88,11.35
9.987989902496338,1.36,-3.73,-9.26,10.07
9.998199939727783,2.26,0.24,-6.58,6.96
10.008194923400879,4.58,0.15,-6.07,7.6
10.018244981765747,5.95,-0.44,-5.58,8.16
10.03202486038208,7.42,5.15,4.46,10.07
10.038848876953125,5.34,19.31,19.41,27.89
10.051910877227783,-1.94,21.12,12.7,24.72
10.05829405784607,-0.6,3.26,-7.67,8.35
10.082237958908081,9.77,-8.38,-14.59,19.45
10.084980010986328,16.93,-12.59,-13.68,25.14
10.088340044021606,15.79,-9.82,-20.1,27.38
10.09838604927063,10.98,-2.38,-25.82,28.15
10.108474969863892,9.57,3.23,-18.58,21.14
10.118709087371826,7.17,6.08,-8.34,12.56
10.129191875457764,0.78,7.46,-2.44,7.88
10.13867712020874,-6.93,6.28,0.37,9.35
10.152470111846924,-9.11,0.19,3.54,9.77
10.158674001693726,-6.91,-4.23,3.35,8.76
10.17811107635498,-4.15,-2.92,-1.76,5.37
10.181157112121582,0.11,-0.13,-4.03,4.03
10.188660144805908,3.46,1.7,-5.13,6.41
10.198780059814453,4.55,1.7,-5.09,7.03
10.208712100982666,3.12,0.46,-3.12,4.43
10.21951699256897,0.14,-0.4,-0.74,0.85
10.23303508758545,-2.54,-0.57,0.89,2.75
10.239399909973145,-4.04,-0.14,1.54,4.32
10.248769044876099,-3.98,0.6,1.45,4.27
10.262699127197266,-2.49,0.96,0.62,2.73
10.276913166046143,-1.13,0.84,-0.33,1.44
10.279573917388916,-0.6,0.64,-0.9,1.25
10.289052963256836,-0.67,0.54,-0.22,0.88
10.299147129058838,-1.7,0.94,1.5,2.45
10.3090980052948,-3.05,1.6,2.99,4.56
10.319779872894287,-3.63,1.97,4.04,5.77
10.33335018157959,-3.45,2.06,4.42,5.97
10.339864015579224,-3.13,2.26,4.46,5.89
10.35317087173462,-3.0,2.43,5.18,6.46
10.35990595817566,-3.66,2.81,5.68,7.31
10.377241134643555,-4.64,3.81,5.72,8.29
10.380949020385742,-4.96,5.18,6.28,9.53
10.389369010925293,-4.65,6.09,6.73,10.19
10.400084018707275,-4.2,6.79,6.77,10.46
10.413315057754517,-3.94,7.65,7.07,11.13
10.420359134674072,-4.27,8.42,7.34,11.95
10.433810949325562,-5.13,8.98,7.46,12.75
10.440184116363525,-6.27,9.71,7.23,13.63
10.449749946594238,-7.32,11.44,6.47,15.04
10.460314989089966,-9.53,15.27,5.38,18.78
10.477705955505371,-12.0,19.4,6.18,23.63
10.480427026748657,-12.68,21.79,7.54,26.31
10.490200996398926,-13.26,21.24,6.59,25.89
10.499737024307251,-13.45,16.73,4.36,21.9
10.509737014770508,-12.91,11.64,3.85,17.8
10.52000093460083,-9.43,7.02,8.97,14.78
10.53491497039795,-7.07,3.87,5.89,9.98
10.539944171905518,-5.04,2.84,-1.97,6.11
10.554428100585938,-1.27,2.71,-4.39,5.31
10.560058116912842,3.31,3.28,-2.6,5.33
10.579471111297607,5.59,3.13,-1.55,6.59
10.582504034042358,4.32,1.5,-4.02,6.08
10.590159893035889,2.29,-1.05,-7.22,7.64
10.600465059280396,2.05,-3.56,-6.78,7.92
10.610201835632324,3.13,-4.97,-3.65,6.91
10.62053108215332,3.64,-5.55,-0.82,6.68
10.634518146514893,2.58,-6.05,0.72,6.61
10.640244007110596,0.33,-6.7,2.16,7.04
10.650815963745117,-1.76,-7.92,4.16,9.11
10.664971828460693,-3.47,-9.28,5.55,11.35
10.679530143737793,-4.51,-9.94,5.82,12.36
10.682212829589844,-4.09,-9.45,5.31,11.58
10.690515995025635,-2.05,-7.91,4.48,9.31
10.700482845306396,0.41,-6.02,2.51,6.53
10.710556983947754,2.52,-4.42,-0.53,5.11
10.72130298614502,4.38,-3.16,-3.24,6.29
10.73467206954956,5.81,-1.86,-5.25,8.04
10.74070692062378,6.38,-0.46,-7.41,9.78
10.75548505783081,6.34,0.68,-9.3,11.27
10.760776042938232,6.28,1.92,-9.57,11.6
10.780704021453857,6.27,3.97,-7.94,10.86
10.783676147460938,5.86,7.23,-6.19,11.17
10.790755987167358,4.55,9.78,-6.7,12.69
10.800777912139893,3.81,8.04,-8.0,11.96
10.81072998046875,4.56,2.86,-10.41,11.71
10.82100796699524,4.45,-1.73,-13.2,14.03
10.83519697189331,3.23,-3.96,-12.93,13.9
10.841717004776001,1.82,-3.97,-11.52,12.32
10.85153603553772,1.66,-3.04,-10.58,11.13
10.860981941223145,3.44,-2.7,-9.71,10.64
10.884377002716064,5.69,0.22,-7.13,9.12
10.887124061584473,6.29,12.96,9.05,17.01
10.89144515991211,0.62,35.59,27.65,45.07
10.901020050048828,-13.25,28.28,16.27,35.21
10.911192893981934,-6.83,-0.19,-1.89,7.08
10.921414852142334,7.48,-15.42,-9.74,19.71
10.931192874908447,13.3,-20.7,-21.17,32.45
10.944715976715088,14.9,-15.92,-32.46,39.1
10.951760053634644,14.32,-3.66,-33.33,36.46
10.96251106262207,12.92,6.52,-23.0,27.17
10.979742050170898,8.39,11.99,-12.62,19.32
10.982445001602173,1.84,12.11,-4.29,12.97
10.991523027420044,-4.82,7.54,1.49,9.07
11.001610040664673,-8.23,0.57,4.65,9.46
11.01162600517273,-7.39,-4.76,4.05,9.67
11.027174949645996,-4.4,-4.56,-1.18,6.44
11.031420946121216,-0.08,-1.59,-4.69,4.95
11.042433023452759,3.39,1.09,-5.61,6.64
11.051743030548096,4.9,2.19,-4.89,7.26
11.06532597541809,4.1,1.31,-2.79,5.12
11.081187009811401,1.9,-0.26,0.22,1.93
11.08384084701538,-0.51,-0.87,2.85,3.02
11.09185004234314,-3.02,-0.28,4.01,5.02
11.102041959762573,-4.96,0.69,3.4,6.05
11.111845970153809,-5.34,1.02,2.04,5.8
11.121714115142822,-4.42,0.56,1.38,4.66
11.135979175567627,-3.17,-0.27,1.28,3.42
11.142014980316162,-2.04,-0.77,1.38,2.58
11.152669906616211,-1.28,-0.41,1.99,2.4
11.16212511062622,-1.36,0.67,2.34,2.78
11.184216976165771,-1.85,1.39,2.46,3.37
11.187906980514526,-2.32,1.45,2.32,3.58
11.192065954208374,-2.23,1.23,2.13,3.32
11.202064990997314,-1.77,1.3,1.5,2.65
11.21268606185913,-1.44,1.98,0.76,2.56
11.227321147918701,-1.32,2.96,0.64,3.3
11.232820987701416,-1.8,3.76,1.64,4.47
11.246701002120972,-3.22,4.37,3.68,6.55
11.25232982635498,-5.14,4.66,5.94,9.13
11.266051054000854,-6.47,5.04,8.04,11.48
11.280186176300049,-6.37,5.44,9.08,12.35
11.282823085784912,-5.33,6.1,8.6,11.81
11.292526960372925,-4.25,6.82,7.62,11.07
11.302648067474365,-3.83,7.33,7.11,10.9
11.3126380443573,-3.96,7.55,6.99,11.02
11.323199033737183,-4.45,7.9,6.56,11.19
11.337378025054932,-5.32,9.32,5.47,12.04
11.343302965164185,-6.87,12.76,4.21,15.09
11.356133937835693,-8.62,18.22,3.59,20.47
11.364017963409424,-11.07,25.0,1.93,27.4
11.384541988372803,-13.12,26.78,0.46,29.82
11.388224124908447,-13.72,19.95,0.96,24.23
11.392776012420654,-13.04,11.66,3.43,17.82
11.402822017669678,-10.13,4.73,7.26,13.33
11.412796974182129,-7.74,0.75,3.06,8.35
11.423073053359985,-5.18,-0.12,-1.63,5.43
11.437083005905151,-1.34,0.23,-1.29,1.87
11.44297194480896,2.11,1.23,-0.11,2.44
11.457399845123291,3.46,1.33,-1.05,3.85
11.463201999664307,2.85,-0.03,-3.6,4.59
11.485930919647217,2.6,-2.09,-4.53,5.62
11.489602088928223,3.57,-4.21,-2.65,6.12
11.493156909942627,4.13,-5.57,-0.14,6.93
11.503015995025635,3.05,-6.12,1.25,6.95
11.513874053955078,1.11,-6.33,2.49,6.89
11.528126001358032,-0.51,-6.56,3.87,7.63
11.533359050750732,-1.71,-6.92,4.48,8.41
11.547431945800781,-2.17,-7.23,4.18,8.62
11.55336594581604,-1.11,-7.32,3.51,8.19
11.563984870910645,0.75,-6.87,2.24,7.26
11.589133024215698,2.36,-6.1,0.02,6.54
11.592287063598633,3.81,-5.42,-2.45,7.06
11.594738006591797,5.23,-4.8,-3.9,8.09
11.603317022323608,6.37,-3.98,-4.0,8.5
11.613583087921143,6.83,-2.67,-3.31,8.04
11.623754978179932,6.17,-1.14,-2.82,6.87
11.63356900215149,5.15,0.8,-2.36,5.72
11.644373893737793,4.72,3.6,-2.24,6.34
11.654333114624023,4.5,7.5,-5.13,10.13
11.66657304763794,4.5,10.94,-9.4,15.1
11.683511972427368,5.07,10.35,-9.67,15.04
11.68628215789795,5.3,5.39,-8.01,11.01
11.693735122680664,4.96,-0.44,-11.05,12.12
11.703927040100098,4.76,-4.29,-14.04,15.43
11.714016914367676,4.98,-4.67,-12.65,14.37
11.724024057388306,4.57,-2.89,-10.15,11.5
11.738649845123291,4.22,-2.12,-8.81,9.99
11.744117021560669,4.29,-1.3,-8.47,9.58
11.754485130310059,4.08,2.75,-4.17,6.44
11.769099950790405,-2.67,17.47,7.71,19.28
11.783440113067627,-10.48,27.15,17.76,34.09
11.786182880401611,-10.34,12.58,7.42,17.89
11.794107913970947,3.42,-4.38,-1.04,5.65
11.80410099029541,11.33,-11.24,-8.27,17.97
11.814532995223999,14.59,-11.2,-17.97,25.71
11.824421882629395,14.21,-5.9,-27.97,31.92
11.834382057189941,14.48,-1.03,-26.96,30.61
11.845273971557617,13.88,0.99,-17.53,22.38
11.85969591140747,9.18,3.1,-10.03,13.94
11.864622116088867,3.01,5.74,-3.45,7.34
11.887423992156982,-2.92,6.04,1.26,6.82
11.890468120574951,-7.98,3.0,2.13,8.78
11.894574165344238,-8.63,-1.19,2.36,9.02
11.904559135437012,-6.21,-2.17,0.27,6.58
11.91447114944458,-2.78,-1.06,-2.48,3.87
11.924957990646362,0.74,-0.27,-3.91,3.98
11.935192108154297,3.05,0.08,-4.14,5.14
11.94868803024292,3.64,0.36,-2.84,4.63
11.955315113067627,2.54,0.79,-0.87,2.79
11.968409061431885,0.67,0.91,0.6,1.27
11.98432207107544,-1.13,0.69,1.27,1.83
11.98711895942688,-2.45,0.28,1.24,2.76
11.9948148727417,-2.94,-0.08,1.06,3.12
12.004899024963379,-2.59,-0.31,0.9,2.75
12.015009880065918,-1.98,-0.4,0.45,2.06
12.025617122650146,-1.52,-0.21,0.32,1.56
12.038700103759766,-1.53,0.39,1.14,1.94
12.044620990753174,-2.16,1.0,2.47,3.43
12.055016994476318,-3.02,1.31,4.25,5.37
12.064597129821777,-4.0,1.46,5.92,7.29
12.087389945983887,-4.84,1.53,6.48,8.23
12.090394973754883,-5.19,1.65,5.8,7.95
12.094724178314209,-5.32,2.25,4.62,7.39
12.104692935943604,-5.27,3.14,4.05,7.35
12.114874839782715,-5.13,4.0,4.05,7.66
12.125251054763794,-4.94,5.14,4.3,8.32
12.135369062423706,-4.86,6.53,4.87,9.48
12.149472951889038,-4.8,7.5,6.19,10.84
12.155480861663818,-4.49,7.87,8.01,12.09
12.164906978607178,-3.62,7.86,8.87,12.39
12.188246011734009,-2.56,8.08,7.61,11.39
12.191722869873047,-2.19,9.47,5.68,11.25
12.19498586654663,-3.31,12.2,4.72,13.49
12.205026149749756,-5.68,15.93,3.93,17.36
12.215106010437012,-8.49,20.3,2.62,22.15
12.225862979888916,-11.25,23.27,0.96,25.86
12.235255002975464,-13.1,21.2,0.62,24.92
12.249500036239624,-12.97,13.93,1.77,19.11
12.255928039550781,-10.72,7.12,3.9,13.44
12.270692825317383,-8.36,2.56,4.61,9.88
12.283604145050049,-6.2,-0.17,0.16,6.2
12.286263942718506,-3.56,-0.99,-3.53,5.11
12.29535698890686,-0.65,-0.36,-2.86,2.95
12.305203914642334,1.92,1.5,-1.52,2.87
12.315382957458496,3.04,2.22,-1.49,4.04
12.326167106628418,2.36,0.96,-2.96,3.9
12.335934162139893,1.45,-1.32,-3.83,4.3
12.349770069122314,1.48,-3.89,-2.74,4.98
12.356113910675049,1.27,-5.85,-1.36,6.13
12.369289875030518,0.4,-7.15,-0.13,7.16
12.38429307937622,-0.76,-8.0,1.16,8.11
12.386934041976929,-1.8,-8.32,1.97,8.73
12.395616054534912,-2.59,-8.63,2.15,9.26
12.405616044998169,-2.71,-9.14,2.22,9.78
12.415881156921387,-2.12,-9.47,2.45,10.0
12.430341958999634,-1.21,-9.15,2.35,9.52
12.436537981033325,-0.25,-8.38,1.49,8.51
12.449552059173584,0.78,-7.39,0.16,7.43
12.455806970596313,1.93,-6.35,-1.17,6.73
12.470123052597046,3.21,-4.77,-2.7,6.35
12.484785079956055,4.57,-2.03,-5.05,7.1
12.487514972686768,5.36,1.0,-6.72,8.65
12.496057987213135,5.23,4.11,-7.14,9.75
12.506175994873047,5.25,5.97,-5.72,9.79
12.516088962554932,4.18,6.81,-6.78,10.47
12.526028156280518,3.56,8.12,-6.85,11.2
12.536098957061768,4.23,7.74,-3.44,9.46
12.549469947814941,3.91,3.74,-2.62,6.01
12.556992053985596,3.81,-1.14,-4.33,5.87
12.569937944412231,4.49,-2.32,-5.98,7.82
12.58788013458252,4.4,-0.51,-7.41,8.63
12.594467163085938,4.58,-1.63,-7.89,9.26
12.604146957397461,4.17,-1.74,-7.79,9.0
12.614561080932617,2.78,0.47,-6.87,7.42
12.628933906555176,-0.43,9.41,1.67,9.56
12.635115146636963,-3.1,20.9,12.19,24.39
12.64813494682312,-4.17,12.32,3.33,13.42
12.654361963272095,3.08,-3.2,-9.65,10.62
12.668503999710083,12.0,-9.92,-12.05,19.68
12.674618005752563,16.82,-10.54,-15.36,25.09
12.694271087646484,17.19,-6.57,-21.56,28.34
12.697258949279785,16.37,-2.04,-22.02,27.51
12.704558849334717,14.14,1.88,-16.75,22.0
12.714751958847046,9.42,4.39,-9.79,14.27
12.724931955337524,3.35,5.19,-3.64,7.16
12.735214948654175,-3.6,4.79,0.3,5.99
12.748592853546143,-10.43,2.38,1.48,10.79
12.755363941192627,-12.39,-1.75,3.2,12.91
12.7691330909729,-10.38,-2.69,2.08,10.92
12.775421142578125,-6.6,-0.47,-1.31,6.74
12.79789113998413,-2.03,1.07,-3.43,4.12
12.800527095794678,1.54,1.19,-4.09,4.52
12.805087089538574,3.63,0.31,-2.85,4.62
12.815049171447754,4.34,-0.63,-0.71,4.44
12.824951171875,3.84,-0.88,1.26,4.13
12.83517599105835,2.15,-0.33,2.28,3.15
12.848784923553467,-0.5,0.69,2.55,2.68
12.855804920196533,-3.25,1.29,2.42,4.25
12.869182109832764,-5.09,1.11,2.24,5.67
12.875179052352905,-5.25,0.56,2.06,5.66
12.89482593536377,-4.04,0.19,1.86,4.45
12.898429870605469,-2.48,0.19,1.55,2.93
12.905065059661865,-1.39,0.52,1.37,2.01
12.915699005126953,-1.06,0.99,1.67,2.21
12.92598009109497,-1.0,1.27,1.9,2.49
12.935306072235107,-0.8,1.33,1.54,2.18
12.949812889099121,-0.63,1.32,0.85,1.69
12.955188035964966,-0.73,1.61,0.64,1.88
12.966238021850586,-1.18,2.38,1.44,3.02
12.980324029922485,-2.22,3.34,2.34,4.64
12.994999885559082,-3.37,4.22,3.3,6.32
12.997655868530273,-3.96,5.04,4.7,7.94
13.005660057067871,-4.12,5.83,5.97,9.3
13.01568603515625,-4.14,6.52,6.99,10.41
13.025760173797607,-3.97,6.85,7.64,11.0
13.035736083984375,-3.62,6.87,7.16,10.56
13.049710035324097,-2.89,6.96,6.34,9.84
13.05614185333252,-2.27,7.86,5.6,9.91
13.071140050888062,-3.09,10.41,4.76,11.85
13.075883865356445,-5.39,14.29,4.59,15.94
13.095139980316162,-7.63,18.33,4.78,20.42
13.0989089012146,-9.83,21.49,3.2,23.84
13.10617208480835,-11.92,21.56,1.38,24.67
13.116760015487671,-13.38,17.38,1.7,21.99
13.126546859741211,-13.25,11.97,3.41,18.17
13.136059045791626,-12.34,7.99,6.27,15.98
13.150062084197998,-9.75,4.01,6.62,12.44
13.156146049499512,-6.23,1.08,1.46,6.48
13.166779041290283,-2.71,0.39,-2.79,3.9
13.180513858795166,1.02,1.48,-2.86,3.37
13.195519924163818,4.15,2.78,-1.62,5.25
13.198163032531738,5.14,2.43,-1.71,5.93
13.206358909606934,4.18,0.55,-3.54,5.5
13.216352939605713,3.32,-1.86,-4.35,5.77
13.226245880126953,3.54,-3.94,-2.47,5.84
13.236508846282959,3.71,-5.27,0.03,6.44
13.250437021255493,3.01,-5.99,1.67,6.9
13.25651216506958,1.83,-6.3,3.29,7.33
13.270380973815918,0.47,-6.52,5.25,8.38
13.276402950286865,-0.94,-7.21,6.6,9.81
13.296175956726074,-2.25,-7.93,6.74,10.64
13.299918174743652,-2.84,-8.15,6.58,10.85
13.306550979614258,-2.07,-7.87,5.81,9.99
13.316879987716675,-0.07,-6.89,4.18,8.05
13.327518939971924,2.17,-5.4,1.98,6.14
13.336688041687012,4.15,-3.7,-0.68,5.6
13.350525856018066,6.15,-1.88,-2.95,7.07
13.35691499710083,7.39,0.19,-4.85,8.84
13.367363929748535,7.17,2.05,-5.9,9.5
13.380836963653564,5.97,3.3,-5.3,8.63
13.396696090698242,4.55,4.2,-4.36,7.57
13.399353981018066,3.16,5.16,-6.71,9.03
13.407156944274902,3.55,6.25,-10.25,12.51
13.416953086853027,7.56,6.72,-12.41,16.01
13.426990032196045,9.65,2.88,-15.71,18.66
13.43704605102539,10.32,-3.93,-12.91,16.98
13.451066017150879,7.01,-6.0,-11.69,14.89
13.457181930541992,1.75,-2.43,-9.14,9.61
13.467781066894531,-2.09,0.79,-3.71,4.33
13.481878995895386,-3.25,1.0,-0.27,3.41
13.495798110961914,-1.88,0.47,0.05,1.93
13.498411178588867,0.23,4.22,3.12,5.25
13.507704019546509,1.46,15.68,12.26,19.95
13.517655849456787,-3.97,23.93,13.4,27.71
13.527415037155151,-8.13,12.39,-0.12,14.81
13.537280082702637,1.13,-4.04,-10.89,11.67
13.549384117126465,9.27,-11.18,-15.06,20.92
13.558282852172852,14.32,-12.65,-16.75,25.4
13.572247982025146,13.31,-8.02,-22.76,27.55
13.577975034713745,10.52,-2.75,-24.68,26.96
13.60130500793457,9.55,0.23,-18.38,20.71
13.604918956756592,6.57,3.79,-10.2,12.71
13.607558965682983,1.68,6.83,-2.94,7.62
13.618084907531738,-3.04,7.11,2.64,8.17
13.627777099609375,-5.65,3.41,5.3,8.46
13.637507915496826,-5.58,-1.53,3.5,6.76
13.651931047439575,-3.59,-3.65,-0.58,5.15
13.657907009124756,-0.48,-2.77,-3.31,4.34
13.668401956558228,2.19,-0.93,-4.73,5.29
13.677762985229492,3.66,0.45,-5.19,6.36
13.698492050170898,3.72,0.92,-4.53,5.93
13.701491832733154,2.51,0.88,-2.72,3.8
13.708096981048584,0.72,0.69,-0.35,1.05
13.71793794631958,-0.9,0.28,1.68,1.92
13.728001117706299,-2.0,-0.22,2.71,3.37
13.738545894622803,-2.38,-0.58,2.8,3.72
13.751816987991333,-2.19,-0.6,2.26,3.2
13.758890151977539,-1.81,-0.41,1.38,2.31
13.768071174621582,-1.42,-0.35,0.54,1.55
13.778849124908447,-0.98,-0.55,0.22,1.14
13.79584789276123,-0.71,-0.58,0.62,1.1
13.798460960388184,-0.93,-0.04,1.6,1.85
13.808452129364014,-1.65,0.83,2.42,3.04
13.818472862243652,-2.31,1.36,2.9,3.94
13.828455924987793,-2.58,1.31,2.99,4.16
13.838184833526611,-2.84,1.23,2.16,3.77
13.852481842041016,-2.74,1.13,0.99,3.12
13.858530044555664,-1.85,1.03,0.13,2.12
13.869078159332275,-1.15,1.41,-0.3,1.84
13.878530025482178,-0.98,2.28,0.3,2.49
13.899476051330566,-1.55,3.24,1.63,3.94
13.903193950653076,-2.81,4.09,3.19,5.89
13.908663034439087,-4.07,5.1,5.13,8.3
13.918519973754883,-5.04,5.97,6.85,10.39
13.932736873626709,-5.44,6.67,7.92,11.69
13.938518047332764,-5.14,7.4,8.33,12.27
13.948686122894287,-5.03,8.5,7.29,12.27
13.963705062866211,-6.03,10.32,5.37,13.1
13.969833850860596,-7.74,12.44,4.17,15.23
13.9789559841156,-8.79,14.74,3.08,17.43
13.998049020767212,-8.79,17.73,2.07,19.89
14.001091003417969,-7.4,19.82,1.41,21.2
14.009385108947754,-5.23,18.14,0.54,18.88
14.018982887268066,-3.76,13.32,0.1,13.84
14.029827117919922,-3.3,8.43,0.76,9.08
14.043160915374756,-2.83,3.16,4.65,6.29
14.049861907958984,-3.19,-1.35,2.88,4.5
14.063108921051025,-3.32,-3.84,-1.44,5.27
14.069838047027588,-0.98,-4.73,-1.15,4.96
14.083047866821289,1.08,-2.86,0.15,3.06
14.097179889678955,2.0,-0.5,0.61,2.14
14.10018801689148,0.81,0.46,-0.64,1.13
14.10929799079895,0.17,-0.53,-0.65,0.85
14.119271039962769,0.38,-2.2,-0.71,2.34
14.129560947418213,0.81,-3.67,-0.62,3.8
14.139470100402832,1.51,-4.73,0.36,4.97
14.15010690689087,2.28,-5.26,2.37,6.2
14.159983158111572,2.56,-5.26,4.07,7.12
14.174254894256592,2.08,-5.3,4.65,7.35
14.180188179016113,1.58,-5.56,5.06,7.68
14.202206134796143,1.3,-5.56,5.62,8.01
14.20601201057434,1.37,-5.32,6.34,8.38
14.209647178649902,1.69,-5.1,6.28,8.26
14.219543933868408,1.95,-4.85,4.79,7.09
14.230470180511475,2.41,-4.46,2.38,5.6
14.24495005607605,3.38,-3.78,-0.11,5.07
14.249819040298462,5.03,-2.26,-2.12,5.9
14.26391887664795,6.5,-0.03,-4.72,8.03
14.269812107086182,7.54,2.28,-6.95,10.5
14.280411958694458,7.88,4.44,-7.95,12.04
14.30570101737976,7.2,5.47,-6.96,11.41
14.308470010757446,6.16,5.89,-4.22,9.51
14.310930013656616,4.99,6.99,-2.38,8.91
14.319794178009033,4.2,6.65,-1.67,8.04
14.330121040344238,6.35,0.63,0.14,6.38
14.340117931365967,8.89,-3.72,-5.69,11.19
14.350299835205078,7.2,-0.75,-12.91,14.8
14.364039897918701,4.8,2.92,-9.07,10.66
14.370038986206055,2.32,1.76,-2.49,3.83
14.38425588607788,-0.37,-0.81,-0.54,1.04
14.398116111755371,-1.63,-2.02,-1.89,3.21
14.400988101959229,0.11,-1.88,-2.01,2.75
14.410446166992188,3.57,-1.53,-0.7,3.94
14.420328140258789,5.99,-0.5,-0.23,6.01
14.430320978164673,6.98,2.19,2.68,7.79
14.445121049880981,3.89,7.81,11.04,14.07
14.450672149658203,-1.77,10.99,14.27,18.09
14.465109825134277,-5.59,6.06,12.94,15.34
14.470540046691895,-5.57,4.65,2.26,7.59
14.481333017349243,-1.75,11.26,-6.93,13.33
14.506458044052124,3.66,12.04,-6.78,14.29
14.509338855743408,8.04,1.85,-8.9,12.13
14.511852979660034,7.87,-7.61,-15.19,18.72
14.52062201499939,5.87,-9.54,-23.22,25.78
14.531936168670654,6.6,-9.03,-25.88,28.19
14.54072904586792,8.75,-5.93,-19.02,21.75
14.550842046737671,8.45,-0.02,-9.94,13.04
14.561684131622314,5.73,6.66,-4.42,9.83
14.575592994689941,2.01,10.52,-1.16,10.77
14.581581115722656,-1.57,8.14,1.02,8.35
14.599408149719238,-3.3,2.64,3.22,5.31
14.602415084838867,-3.53,-1.85,4.34,5.89
14.611166000366211,-3.45,-3.99,2.16,5.69
14.62088394165039,-1.91,-4.49,-0.42,4.89
14.631039142608643,0.04,-3.23,-1.87,3.73
14.645586967468262,0.76,-0.78,-2.58,2.8
14.651190042495728,0.8,1.21,-1.94,2.42
14.661799907684326,0.46,1.74,-0.26,1.81
14.671245098114014,-0.89,1.15,1.45,2.05
14.685367107391357,-3.21,0.51,2.75,4.25
14.699538946151733,-5.45,-0.19,3.83,6.66
14.703197956085205,-6.77,-0.72,4.35,8.07
14.711420059204102,-6.27,-0.56,4.68,7.84
14.721668004989624,-4.44,0.08,4.36,6.22
14.731275081634521,-2.7,0.41,2.86,3.95
14.745553970336914,-0.72,0.21,1.71,1.86
14.75233507156372,1.36,-0.19,0.79,1.58
14.76594591140747,2.83,-0.55,-0.84,3.0
14.771615028381348,3.71,-0.67,-2.08,4.3
14.786427021026611,3.5,-0.46,-2.45,4.29
14.799833059310913,1.72,-0.19,-2.78,3.27
14.802536010742188,-0.4,0.42,-2.81,2.86
14.811720848083496,-1.96,0.93,-2.38,3.22
14.821738004684448,-3.06,1.42,-2.82,4.39
14.831832885742188,-3.35,1.94,-3.69,5.34
14.841722011566162,-2.43,0.52,-3.32,4.14
14.851814031600952,-1.15,-1.43,-1.84,2.59
14.862648963928223,-0.27,-1.11,-0.48,1.23
14.871811866760254,0.0,0.32,0.08,0.32
14.885938167572021,0.37,0.61,0.33,0.78
14.899788856506348,0.91,0.09,0.06,0.91
14.902387142181396,1.35,-0.68,-0.51,1.59
14.91220998764038,1.94,-1.34,-0.26,2.37
14.921913146972656,2.47,-1.53,0.53,2.95
14.932276964187622,2.74,-1.17,1.15,3.19
14.946298122406006,2.75,-0.53,1.54,3.19
14.952388048171997,2.4,-0.37,1.63,2.92
14.966426849365234,1.63,-0.73,1.75,2.5
14.972118854522705,0.57,-1.06,1.65,2.04
14.982812881469727,-0.4,-1.1,1.38,1.8
15.002932071685791,-0.88,-1.01,1.37,1.91
15.005884170532227,-0.9,-0.78,1.41,1.84
15.012431144714355,-0.76,-0.3,1.18,1.43
15.022495031356812,-0.52,0.19,0.8,0.97
15.032320022583008,-0.31,0.36,0.36,0.59
15.043094158172607,-0.2,0.18,-0.11,0.29
15.052196025848389,-0.2,0.05,-0.35,0.4
15.066894054412842,-0.41,0.18,-0.42,0.61
15.073052883148193,-0.7,0.32,-0.35,0.84
15.086473941802979,-0.75,0.36,-0.24,0.86
15.100299835205078,-0.52,0.25,-0.29,0.64
15.102820873260498,-0.19,-0.17,-0.36,0.44
15.112679958343506,0.29,-0.66,-0.2,0.74
15.122684955596924,0.8,-0.76,0.17,1.11
15.132751941680908,1.31,-0.81,0.63,1.66
15.146658897399902,1.82,-0.85,0.91,2.2
15.153602123260498,2.06,-0.91,0.86,2.41
15.166869163513184,1.95,-0.92,0.66,2.25
15.173335075378418,1.52,-0.78,0.53,1.78
15.187201023101807,0.71,-0.31,0.07,0.77
15.200923919677734,0.06,0.17,-0.02,0.18
15.203549861907959,-0.14,-0.02,0.42,0.44
15.213075160980225,-0.83,-0.34,0.58,1.06
15.223187923431396,-1.14,0.26,1.14,1.63
15.233343124389648,-0.72,0.98,1.59,2.0
15.24730896949768,-0.45,0.6,0.96,1.21
15.2531099319458,0.13,-0.18,0.31,0.38
15.263888835906982,0.72,-0.55,-0.14,0.91
15.278236865997314,1.09,-0.56,-0.4,1.28
15.284428119659424,1.2,-0.3,-0.3,1.27
15.30101490020752,0.85,0.0,-0.05,0.85
15.303989887237549,0.34,0.05,0.02,0.34
15.313581943511963,0.07,-0.12,-0.19,0.23
15.323621034622192,0.01,-0.31,-0.29,0.42
15.333353042602539,-0.16,-0.39,-0.36,0.55
15.347615957260132,0.17,-0.11,-0.53,0.56
15.353554964065552,0.52,-0.08,-0.57,0.77
15.367968082427979,0.48,-0.19,-0.27,0.58
15.373682022094727,0.17,-0.37,-0.15,0.43
15.384063005447388,-0.06,-0.42,0.36,0.55
15.40819787979126,-0.04,-0.33,0.44,0.55
15.411182880401611,0.12,-0.27,0.16,0.33
15.413713932037354,0.27,-0.2,-0.08,0.34
15.42383098602295,0.21,-0.27,-0.15,0.37
15.433778047561646,0.14,-0.23,-0.12,0.29
15.444532871246338,0.09,-0.16,-0.02,0.18
15.458279132843018,0.07,-0.31,-0.02,0.31
15.46469783782959,0.08,-0.43,0.18,0.47
15.478705883026123,-0.06,-0.46,0.32,0.56
15.483957052230835,-0.3,-0.4,0.49,0.7
15.503321170806885,-0.41,-0.03,0.78,0.88
15.506844997406006,-0.49,0.86,0.98,1.39
15.514063835144043,-0.55,1.52,0.37,1.65
15.524137020111084,-0.16,1.17,-0.47,1.27
15.53490400314331,0.2,0.07,-0.85,0.87
15.54793906211853,0.23,-0.68,-0.87,1.12
15.554903030395508,0.21,-0.58,-0.74,0.96
15.568197011947632,0.34,-0.1,-0.67,0.75
15.574465990066528,0.52,0.11,-0.77,0.93
15.589359998703003,0.59,-0.16,-0.78,0.99
15.601974964141846,0.55,-0.46,-0.72,1.01
15.604504108428955,0.5,-0.46,-0.37,0.77
15.614377975463867,0.4,-0.19,0.05,0.44
15.624474048614502,0.25,0.01,0.37,0.44
15.634974002838135,0.08,0.09,0.52,0.53
15.648841857910156,-0.1,-0.05,0.69,0.69
15.654484987258911,-0.42,-0.14,0.76,0.87
15.668256044387817,-0.52,-0.14,0.88,1.03
15.675071954727173,-0.65,-0.05,1.01,1.2
15.690001010894775,-0.42,0.07,1.05,1.13
15.70266604423523,-0.08,0.15,0.83,0.84
15.705284118652344,0.08,0.03,0.53,0.53
15.714685916900635,0.03,-0.13,0.43,0.45
15.724601030349731,-0.04,-0.17,0.38,0.41
15.734952926635742,0.05,-0.16,0.11,0.2
15.745468139648438,0.21,-0.18,-0.18,0.32
15.755748987197876,0.23,-0.16,-0.45,0.53
15.765424966812134,0.27,-0.04,-0.47,0.54
15.779024124145508,0.21,0.04,-0.44,0.48
15.785784006118774,0.05,0.03,-0.51,0.51
