
time,ax,ay,az,wx,wy,wz,
17:41:51:439,-1.16,-0.15,-1.13,0.81,-0.51,-0.98,
17:41:51:440,-1.16,-0.15,-1.13,0.71,-0.62,-0.89,
17:41:51:441,-1.16,-0.15,-1.13,0.61,-0.69,-0.78,
17:41:51:441,-1.33,0.17,-1.37,0.61,-0.69,-0.78,
17:41:51:441,-1.33,0.17,-1.37,0.49,-0.72,-0.66,
17:41:51:442,-1.42,0.37,-1.65,0.49,-0.72,-0.66,
17:41:51:442,-1.29,0.46,-1.91,0.49,-0.72,-0.66,
17:41:51:442,-1.29,0.46,-1.91,0.37,-0.70,-0.54,
17:41:51:449,-1.29,0.46,-1.91,0.24,-0.64,-0.43,
17:41:51:449,-1.05,0.43,-2.18,0.24,-0.64,-0.43,
17:41:51:450,-1.05,0.43,-2.18,0.09,-0.55,-0.33,
17:41:51:450,-0.72,0.29,-2.46,0.09,-0.55,-0.33,
17:41:51:454,-0.72,0.29,-2.46,-0.06,-0.43,-0.25,
17:41:51:455,-0.35,0.09,-2.76,-0.06,-0.43,-0.25,
17:41:51:461,-0.35,0.09,-2.76,-0.22,-0.28,-0.20,
17:41:51:462,0.08,-0.15,-2.75,-0.22,-0.28,-0.20,
17:41:51:465,0.08,-0.15,-2.75,-0.38,-0.15,-0.17,
17:41:51:467,0.45,-0.31,-2.49,-0.38,-0.15,-0.17,
17:41:51:469,0.45,-0.31,-2.49,-0.54,-0.06,-0.16,
17:41:51:470,0.74,-0.44,-2.22,-0.54,-0.06,-0.16,
17:41:51:475,0.74,-0.44,-2.22,-0.70,-0.00,-0.17,
17:41:51:475,0.92,-0.47,-2.10,-0.70,-0.00,-0.17,
17:41:51:479,1.00,-0.44,-2.15,-0.70,-0.00,-0.17,
17:41:51:480,1.00,-0.44,-2.15,-0.86,0.04,-0.18,
17:41:51:484,1.00,-0.44,-2.15,-1.01,0.08,-0.20,
17:41:51:484,1.00,-0.36,-2.23,-1.01,0.08,-0.20,
17:41:51:488,1.00,-0.36,-2.23,-1.16,0.12,-0.22,
17:41:51:489,0.92,-0.21,-2.20,-1.16,0.12,-0.22,
17:41:51:494,0.92,-0.21,-2.20,-1.29,0.16,-0.23,
17:41:51:494,0.86,-0.09,-2.11,-1.29,0.16,-0.23,
17:41:51:498,0.74,0.04,-2.16,-1.29,0.16,-0.23,
17:41:51:499,0.74,0.04,-2.16,-1.42,0.19,-0.23,
17:41:51:503,0.60,0.15,-2.31,-1.42,0.19,-0.23,
17:41:51:503,0.60,0.15,-2.31,-1.53,0.22,-0.23,
17:41:51:508,0.60,0.15,-2.31,-1.62,0.25,-0.22,
17:41:51:509,0.43,0.22,-2.46,-1.62,0.25,-0.22,
17:41:51:513,0.27,0.33,-2.48,-1.62,0.25,-0.22,
17:41:51:513,0.27,0.33,-2.48,-1.72,0.28,-0.19,
17:41:51:518,0.27,0.33,-2.48,-1.80,0.30,-0.16,
17:41:51:518,0.15,0.43,-2.35,-1.80,0.30,-0.16,
17:41:51:522,0.01,0.55,-2.10,-1.80,0.30,-0.16,
17:41:51:523,0.01,0.55,-2.10,-1.87,0.29,-0.12,
17:41:51:528,-0.22,0.64,-1.97,-1.87,0.29,-0.12,
17:41:51:528,-0.22,0.64,-1.97,-1.93,0.24,-0.08,
17:41:51:532,-0.31,0.73,-1.86,-1.93,0.24,-0.08,
17:41:51:533,-0.31,0.73,-1.86,-1.98,0.17,-0.03,
17:41:51:537,-0.31,0.73,-1.86,-2.03,0.07,0.03,
17:41:51:537,-0.18,0.83,-1.63,-2.03,0.07,0.03,
17:41:51:542,-0.18,0.83,-1.63,-2.07,-0.04,0.08,
17:41:51:543,-0.08,0.86,-1.50,-2.07,-0.04,0.08,
17:41:51:547,0.09,0.91,-1.32,-2.07,-0.04,0.08,
17:41:51:547,0.09,0.91,-1.32,-2.10,-0.17,0.13,
17:41:51:552,0.09,0.91,-1.32,-2.12,-0.31,0.16,
17:41:51:552,0.36,0.89,-1.06,-2.12,-0.31,0.16,
17:41:51:556,0.36,0.89,-1.06,-2.14,-0.47,0.18,
17:41:51:557,0.65,0.80,-0.70,-2.14,-0.47,0.18,
17:41:51:562,0.95,0.68,-0.32,-2.14,-0.47,0.18,
17:41:51:562,0.95,0.68,-0.32,-2.15,-0.64,0.19,
17:41:51:566,0.95,0.68,-0.32,-2.14,-0.84,0.18,
17:41:51:567,1.17,0.61,-0.11,-2.14,-0.84,0.18,
17:41:51:571,1.29,0.58,-0.14,-2.14,-0.84,0.18,
17:41:51:572,1.29,0.58,-0.14,-2.13,-1.03,0.15,
17:41:51:576,1.32,0.61,-0.29,-2.13,-1.03,0.15,
17:41:51:577,1.32,0.61,-0.29,-2.12,-1.18,0.11,
17:41:51:581,1.34,0.70,-0.37,-2.12,-1.18,0.11,
17:41:51:581,1.34,0.70,-0.37,-2.10,-1.28,0.07,
17:41:51:586,1.34,0.70,-0.37,-2.08,-1.33,0.02,
17:41:51:586,1.35,0.82,-0.40,-2.08,-1.33,0.02,
17:41:51:590,1.35,0.82,-0.40,-2.05,-1.33,-0.03,
17:41:51:591,1.35,0.92,-0.38,-2.05,-1.33,-0.03,
17:41:51:596,1.37,0.96,-0.32,-2.05,-1.33,-0.03,
17:41:51:596,1.37,0.96,-0.32,-2.02,-1.29,-0.07,
17:41:51:600,1.37,0.96,-0.32,-2.00,-1.22,-0.11,
17:41:51:600,1.31,0.95,-0.31,-2.00,-1.22,-0.11,
17:41:51:605,1.31,0.95,-0.31,-1.97,-1.12,-0.14,
17:41:51:605,1.17,0.92,-0.34,-1.97,-1.12,-0.14,
17:41:51:610,1.17,0.92,-0.34,-1.95,-0.98,-0.16,
17:41:51:611,0.95,0.83,-0.37,-1.95,-0.98,-0.16,
17:41:51:615,0.95,0.83,-0.37,-1.92,-0.83,-0.16,
17:41:51:616,0.63,0.78,-0.37,-1.92,-0.83,-0.16,
17:41:51:619,0.31,0.84,-0.22,-1.92,-0.83,-0.16,
17:41:51:620,0.31,0.84,-0.22,-1.91,-0.67,-0.13,
17:41:51:625,0.31,0.84,-0.22,-1.88,-0.52,-0.08,
17:41:51:625,0.06,0.96,-0.22,-1.88,-0.52,-0.08,
17:41:51:629,0.06,0.96,-0.22,-1.86,-0.36,-0.01,
17:41:51:630,0.02,1.00,-0.34,-1.86,-0.36,-0.01,
17:41:51:634,-0.01,0.95,-0.14,-1.86,-0.36,-0.01,
17:41:51:634,-0.01,0.95,-0.14,-1.84,-0.19,0.06,
17:41:51:648,-0.01,0.95,-0.14,-1.81,-0.04,0.13,
17:41:51:649,-0.09,0.86,0.06,-1.81,-0.04,0.13,
17:41:51:649,-0.06,0.81,0.36,-1.81,-0.04,0.13,
17:41:51:650,-0.06,0.81,0.36,-1.79,0.08,0.20,
17:41:51:650,-0.06,0.81,0.36,-1.76,0.14,0.28,
17:41:51:650,-0.11,0.82,0.50,-1.76,0.14,0.28,
17:41:51:654,-0.25,1.00,0.67,-1.76,0.14,0.28,
17:41:51:655,-0.25,1.00,0.67,-1.73,0.15,0.36,
17:41:51:666,-0.25,1.00,0.67,-1.70,0.11,0.47,
17:41:51:666,-0.37,1.19,0.66,-1.70,0.11,0.47,
17:41:51:667,-0.37,1.19,0.66,-1.66,0.06,0.58,
17:41:51:667,-0.34,1.26,0.77,-1.66,0.06,0.58,
17:41:51:668,-0.34,1.26,0.77,-1.62,0.00,0.70,
17:41:51:669,-0.30,1.34,1.02,-1.62,0.00,0.70,
17:41:51:673,-0.33,1.43,1.17,-1.62,0.00,0.70,
17:41:51:673,-0.33,1.43,1.17,-1.55,-0.06,0.82,
17:41:51:681,-0.50,1.51,1.12,-1.55,-0.06,0.82,
17:41:51:681,-0.50,1.51,1.12,-1.47,-0.10,0.92,
17:41:51:683,-0.62,1.64,1.28,-1.47,-0.10,0.92,
17:41:51:683,-0.62,1.64,1.28,-1.37,-0.07,1.03,
17:41:51:688,-0.62,1.64,1.28,-1.24,-0.03,1.13,
17:41:51:688,-0.61,1.76,1.52,-1.24,-0.03,1.13,
17:41:51:693,-0.67,1.82,1.65,-1.24,-0.03,1.13,
17:41:51:693,-0.67,1.82,1.65,-1.08,0.01,1.22,
17:41:51:697,-0.67,1.82,1.65,-0.91,0.07,1.31,
17:41:51:698,-0.68,1.86,1.84,-0.91,0.07,1.31,
17:41:51:702,-0.68,1.86,1.84,-0.71,0.12,1.39,
17:41:51:702,-0.83,1.78,2.02,-0.71,0.12,1.39,
17:41:51:707,-0.83,1.78,2.02,-0.50,0.15,1.46,
17:41:51:707,-0.94,1.75,2.08,-0.50,0.15,1.46,
17:41:51:712,-0.94,1.75,2.08,-0.29,0.17,1.53,
17:41:51:713,-0.93,1.70,1.94,-0.29,0.17,1.53,
17:41:51:717,-0.93,1.70,1.94,-0.09,0.21,1.59,
17:41:51:717,-0.82,1.52,2.04,-0.09,0.21,1.59,
17:41:51:721,-0.82,1.52,2.04,0.11,0.24,1.61,
17:41:51:722,-0.61,1.36,2.28,0.11,0.24,1.61,
17:41:51:726,-0.61,1.36,2.28,0.29,0.24,1.61,
17:41:51:727,-0.46,1.19,2.46,0.29,0.24,1.61,
17:41:51:731,-0.31,1.04,2.54,0.29,0.24,1.61,
17:41:51:732,-0.31,1.04,2.54,0.45,0.23,1.58,
17:41:51:736,-0.31,1.04,2.54,0.60,0.22,1.52,
17:41:51:736,-0.17,0.85,2.65,0.60,0.22,1.52,
17:41:51:741,-0.17,0.85,2.65,0.73,0.20,1.44,
17:41:51:742,0.03,0.54,2.83,0.73,0.20,1.44,
17:41:51:747,0.03,0.54,2.83,0.85,0.20,1.33,
17:41:51:748,0.31,0.25,2.84,0.85,0.20,1.33,
17:41:51:751,0.31,0.25,2.84,0.96,0.20,1.20,
17:41:51:752,0.63,-0.02,2.78,0.96,0.20,1.20,
17:41:51:756,0.63,-0.02,2.78,1.04,0.21,1.04,
17:41:51:756,0.83,-0.25,2.91,1.04,0.21,1.04,
17:41:51:762,0.83,-0.25,2.91,1.12,0.18,0.87,
17:41:51:763,0.90,-0.35,3.21,1.12,0.18,0.87,
17:41:51:766,0.90,-0.35,3.21,1.19,0.12,0.69,
17:41:51:767,0.91,-0.44,3.41,1.19,0.12,0.69,
17:41:51:771,0.91,-0.44,3.41,1.27,0.04,0.51,
17:41:51:771,0.83,-0.47,3.54,1.27,0.04,0.51,
17:41:51:785,0.83,-0.47,3.54,1.35,-0.03,0.36,
17:41:51:786,0.54,-0.50,3.69,1.35,-0.03,0.36,
17:41:51:786,0.54,-0.50,3.69,1.43,-0.11,0.24,
17:41:51:787,0.16,-0.49,3.88,1.43,-0.11,0.24,
17:41:51:787,0.16,-0.49,3.88,1.51,-0.23,0.17,
17:41:51:787,-0.35,-0.46,3.81,1.51,-0.23,0.17,
17:41:51:790,-1.06,-0.67,3.44,1.51,-0.23,0.17,
17:41:51:791,-1.06,-0.67,3.44,1.58,-0.35,0.14,
17:41:51:795,-1.06,-0.67,3.44,1.63,-0.42,0.17,
17:41:51:796,-1.25,-1.11,3.17,1.63,-0.42,0.17,
17:41:51:800,-1.25,-1.11,3.17,1.67,-0.49,0.22,
17:41:51:800,-1.22,-1.42,3.01,1.67,-0.49,0.22,
17:41:51:804,-1.22,-1.42,3.01,1.73,-0.56,0.30,
17:41:51:805,-0.94,-1.47,2.43,1.73,-0.56,0.30,
17:41:51:809,-0.94,-1.47,2.43,1.79,-0.58,0.38,
17:41:51:810,-0.39,-1.44,2.11,1.79,-0.58,0.38,
17:41:51:814,0.26,-1.44,1.97,1.79,-0.58,0.38,
17:41:51:815,0.26,-1.44,1.97,1.86,-0.60,0.45,
17:41:51:819,0.26,-1.44,1.97,1.94,-0.64,0.51,
17:41:51:819,0.88,-1.38,1.87,1.94,-0.64,0.51,
17:41:51:825,1.58,-1.23,1.74,1.94,-0.64,0.51,
17:41:51:826,1.58,-1.23,1.74,2.03,-0.69,0.54,
17:41:51:829,1.58,-1.23,1.74,2.11,-0.75,0.56,
17:41:51:830,2.30,-1.09,1.50,2.11,-0.75,0.56,
17:41:51:840,2.30,-1.09,1.50,2.18,-0.81,0.56,
17:41:51:840,2.30,-1.09,1.50,2.23,-0.86,0.55,
17:41:51:840,2.84,-1.12,1.02,2.23,-0.86,0.55,
17:41:51:840,3.05,-1.38,0.81,2.23,-0.86,0.55,
17:41:51:844,3.05,-1.38,0.81,2.24,-0.98,0.54,
17:41:51:844,3.42,-1.73,0.93,2.24,-0.98,0.54,
17:41:51:848,3.42,-1.73,0.93,2.20,-1.25,0.51,
17:41:51:849,3.84,-2.06,0.47,2.20,-1.25,0.51,
17:41:51:853,3.84,-2.06,0.47,2.08,-1.64,0.44,
17:41:51:853,4.14,-2.01,0.04,2.08,-1.64,0.44,
17:41:51:861,4.14,-2.01,0.04,1.86,-2.09,0.31,
17:41:51:864,4.27,-1.77,-0.63,1.86,-2.09,0.31,
17:41:51:868,4.27,-1.77,-0.63,1.58,-2.54,0.13,
17:41:51:868,4.14,-1.47,-1.77,1.58,-2.54,0.13,
17:41:51:868,3.64,-1.16,-2.85,1.58,-2.54,0.13,
17:41:51:869,3.64,-1.16,-2.85,1.25,-2.88,-0.07,
17:41:51:873,3.64,-1.16,-2.85,0.92,-3.01,-0.28,
17:41:51:873,2.95,-0.91,-3.73,0.92,-3.01,-0.28,
17:41:51:878,2.04,-0.65,-4.31,0.92,-3.01,-0.28,
17:41:51:879,2.04,-0.65,-4.31,0.62,-2.93,-0.48,
17:41:51:894,2.04,-0.65,-4.31,0.33,-2.66,-0.67,
17:41:51:895,1.21,-0.35,-4.61,0.33,-2.66,-0.67,
17:41:51:895,1.21,-0.35,-4.61,0.06,-2.30,-0.83,
17:41:51:895,0.47,-0.07,-4.58,0.06,-2.30,-0.83,
17:41:51:896,0.47,-0.07,-4.58,-0.21,-1.89,-0.96,
17:41:51:896,-0.15,0.17,-4.42,-0.21,-1.89,-0.96,
17:41:51:898,-0.15,0.17,-4.42,-0.49,-1.45,-1.06,
17:41:51:899,-0.72,0.33,-4.03,-0.49,-1.45,-1.06,
17:41:51:902,-1.26,0.49,-3.43,-0.49,-1.45,-1.06,
17:41:51:902,-1.26,0.49,-3.43,-0.76,-1.02,-1.14,
17:41:51:907,-1.26,0.49,-3.43,-1.01,-0.61,-1.18,
17:41:51:908,-1.51,0.57,-2.56,-1.01,-0.61,-1.18,
17:41:51:913,-1.51,0.57,-2.56,-1.22,-0.29,-1.18,
17:41:51:914,-1.59,0.58,-1.50,-1.22,-0.29,-1.18,
17:41:51:917,-1.66,0.62,-0.47,-1.22,-0.29,-1.18,
17:41:51:917,-1.66,0.62,-0.47,-1.38,-0.04,-1.17,
17:41:51:922,-1.66,0.62,-0.47,-1.48,0.11,-1.14,
17:41:51:922,-1.55,0.66,0.56,-1.48,0.11,-1.14,
17:41:51:928,-1.55,0.66,0.56,-1.55,0.15,-1.10,
17:41:51:928,-1.43,0.73,1.27,-1.55,0.15,-1.10,
17:41:51:932,-1.35,0.82,1.55,-1.55,0.15,-1.10,
17:41:51:932,-1.35,0.82,1.55,-1.57,0.14,-1.05,
17:41:51:937,-1.35,0.82,1.55,-1.55,0.12,-1.01,
17:41:51:937,-1.21,0.87,1.75,-1.55,0.12,-1.01,
17:41:51:940,-1.21,0.87,1.75,-1.51,0.12,-0.95,
17:41:51:941,-1.05,0.98,1.76,-1.51,0.12,-0.95,
17:41:51:948,-1.05,0.98,1.76,-1.43,0.18,-0.90,
17:41:51:949,-0.98,1.07,1.79,-1.43,0.18,-0.90,
17:41:51:951,-0.98,1.07,1.79,-1.31,0.26,-0.85,
17:41:51:951,-1.53,1.41,2.22,-1.31,0.26,-0.85,
17:41:51:955,-1.53,1.41,2.22,-1.17,0.30,-0.75,
17:41:51:955,-3.55,2.18,2.84,-1.17,0.30,-0.75,
17:41:51:964,-3.55,2.18,2.84,-1.00,0.29,-0.57,
17:41:51:964,-5.69,3.39,2.88,-1.00,0.29,-0.57,
17:41:51:966,-5.69,3.39,2.88,-0.79,0.33,-0.30,
17:41:51:966,-6.85,4.24,2.84,-0.79,0.33,-0.30,
17:41:51:970,-6.85,4.24,2.84,-0.54,0.39,0.01,
17:41:51:971,-4.22,2.44,3.79,-0.54,0.39,0.01,
17:41:51:981,-4.22,2.44,3.79,-0.26,0.33,0.19,
17:41:51:983,-0.59,-0.37,3.90,-0.26,0.33,0.19,
17:41:51:984,-0.59,-0.37,3.90,0.01,0.18,0.24,
17:41:51:986,-0.20,-1.30,3.29,0.01,0.18,0.24,
17:41:51:986,-0.20,-1.30,3.29,0.27,0.05,0.26,
17:41:51:987,-0.80,-1.14,2.91,0.27,0.05,0.26,
17:41:52:006,-1.90,-0.58,2.32,0.27,0.05,0.26,
17:41:52:007,-3.14,-0.25,1.86,0.27,0.05,0.26,
17:41:52:008,-3.14,-0.25,1.86,0.50,-0.03,0.32,
17:41:52:008,-3.14,-0.25,1.86,0.69,-0.05,0.44,
17:41:52:012,-3.14,-0.25,1.86,0.82,-0.02,0.66,
17:41:52:013,-4.26,-0.34,1.78,0.82,-0.02,0.66,
17:41:52:014,-4.26,-0.34,1.78,0.93,0.03,0.94,
17:41:52:014,-3.10,-1.00,1.50,0.93,0.03,0.94,
17:41:52:015,-3.10,-1.00,1.50,1.03,0.05,1.21,
17:41:52:015,-1.87,-1.22,0.86,1.03,0.05,1.21,
17:41:52:016,-1.21,-0.92,0.34,1.03,0.05,1.21,
17:41:52:016,-1.21,-0.92,0.34,1.09,0.03,1.46,
17:41:52:019,-1.21,-0.92,0.34,1.13,0.04,1.65,
17:41:52:021,-0.71,-0.69,0.04,1.13,0.04,1.65,
17:41:52:024,0.62,-0.72,0.07,1.13,0.04,1.65,
17:41:52:025,0.62,-0.72,0.07,1.18,0.12,1.77,
17:41:52:028,0.62,-0.72,0.07,1.21,0.22,1.76,
17:41:52:029,1.04,-0.67,-0.39,1.21,0.22,1.76,
17:41:52:033,1.78,-0.55,-0.72,1.21,0.22,1.76,
17:41:52:034,1.78,-0.55,-0.72,1.18,0.29,1.67,
17:41:52:038,2.14,-0.52,-1.14,1.18,0.29,1.67,
17:41:52:039,2.14,-0.52,-1.14,1.15,0.33,1.52,
17:41:52:046,2.02,-0.29,-1.32,1.15,0.33,1.52,
17:41:52:047,2.02,-0.29,-1.32,1.09,0.35,1.34,
17:41:52:049,2.02,-0.29,-1.32,1.04,0.33,1.17,
17:41:52:049,1.44,-0.18,-1.64,1.04,0.33,1.17,
17:41:52:054,0.57,-0.14,-1.85,1.04,0.33,1.17,
17:41:52:054,0.57,-0.14,-1.85,0.97,0.28,1.04,
17:41:52:060,-0.35,-0.13,-2.05,0.97,0.28,1.04,
17:41:52:060,-0.35,-0.13,-2.05,0.91,0.22,0.97,
17:41:52:062,-1.31,-0.31,-2.14,0.91,0.22,0.97,
17:41:52:062,-1.31,-0.31,-2.14,0.84,0.13,0.97,
17:41:52:068,-1.31,-0.31,-2.14,0.78,0.04,1.03,
17:41:52:068,-2.03,-0.50,-1.85,0.78,0.04,1.03,
17:41:52:071,-2.25,-0.89,-1.71,0.78,0.04,1.03,
17:41:52:072,-2.25,-0.89,-1.71,0.72,-0.08,1.12,
17:41:52:077,-2.07,-1.03,-1.15,0.72,-0.08,1.12,
17:41:52:078,-2.07,-1.03,-1.15,0.67,-0.21,1.20,
17:41:52:081,-2.07,-1.03,-1.15,0.64,-0.38,1.26,
17:41:52:082,-1.89,-0.84,-0.77,0.64,-0.38,1.26,
17:41:52:087,-1.52,-0.76,-0.49,0.64,-0.38,1.26,
17:41:52:088,-1.52,-0.76,-0.49,0.64,-0.55,1.30,
17:41:52:103,-1.52,-0.76,-0.49,0.66,-0.69,1.30,
17:41:52:105,-0.94,-0.87,-0.43,0.66,-0.69,1.30,
17:41:52:106,-0.94,-0.87,-0.43,0.70,-0.76,1.26,
17:41:52:106,-0.29,-0.86,-0.20,0.70,-0.76,1.26,
17:41:52:107,0.05,-0.73,-0.21,0.70,-0.76,1.26,
17:41:52:107,0.05,-0.73,-0.21,0.74,-0.83,1.19,
17:41:52:111,0.05,-0.73,-0.21,0.77,-0.89,1.12,
17:41:52:127,0.15,-0.72,-0.69,0.77,-0.89,1.12,
17:41:52:128,0.25,-0.61,-1.01,0.77,-0.89,1.12,
17:41:52:129,0.25,-0.61,-1.01,0.77,-0.89,1.06,
17:41:52:129,0.25,-0.61,-1.01,0.73,-0.86,1.00,
17:41:52:130,0.14,-0.64,-1.92,0.73,-0.86,1.00,
17:41:52:130,0.20,-0.72,-2.36,0.73,-0.86,1.00,
17:41:52:131,0.20,-0.72,-2.36,0.65,-0.77,0.95,
17:41:52:159,-0.03,-0.57,-2.55,0.65,-0.77,0.95,
17:41:52:159,-0.03,-0.57,-2.55,0.54,-0.68,0.89,
17:41:52:160,-0.29,-0.61,-2.57,0.54,-0.68,0.89,
17:41:52:160,-0.29,-0.61,-2.57,0.40,-0.63,0.85,
17:41:52:161,-0.29,-0.61,-2.57,0.27,-0.57,0.82,
17:41:52:161,-0.35,-0.76,-2.00,0.27,-0.57,0.82,
17:41:52:161,-0.35,-0.76,-2.00,0.17,-0.53,0.79,
17:41:52:162,-0.48,-0.70,-1.17,0.17,-0.53,0.79,
17:41:52:162,-0.67,-0.63,-0.39,0.17,-0.53,0.79,
17:41:52:163,-0.67,-0.63,-0.39,0.11,-0.52,0.78,
17:41:52:163,-0.67,-0.63,-0.39,0.08,-0.53,0.78,
17:41:52:163,-0.62,-0.76,0.19,0.08,-0.53,0.78,
17:41:52:164,-0.62,-0.76,0.19,0.10,-0.54,0.78,
17:41:52:164,-0.38,-0.66,1.03,0.10,-0.54,0.78,
17:41:52:165,-0.38,-0.66,1.03,0.14,-0.60,0.79,
17:41:52:165,-0.43,-0.43,1.43,0.14,-0.60,0.79,
17:41:52:166,-0.41,-0.33,1.77,0.14,-0.60,0.79,
17:41:52:166,-0.41,-0.33,1.77,0.20,-0.71,0.80,
17:41:52:169,-0.79,-0.26,2.64,0.20,-0.71,0.80,
17:41:52:170,-0.79,-0.26,2.64,0.28,-0.86,0.83,
17:41:52:174,-0.97,-0.40,2.00,0.28,-0.86,0.83,
17:41:52:175,-0.97,-0.40,2.00,0.39,-1.11,0.90,
17:41:52:180,-0.34,-0.58,1.04,0.39,-1.11,0.90,
17:41:52:180,-0.34,-0.58,1.04,0.51,-1.29,0.96,
17:41:52:184,0.14,-0.49,-0.18,0.51,-1.29,0.96,
17:41:52:185,0.14,-0.49,-0.18,0.57,-1.39,0.96,
17:41:52:189,0.16,-0.55,-1.31,0.57,-1.39,0.96,
17:41:52:190,0.16,-0.55,-1.31,0.55,-1.39,0.90,
17:41:52:202,0.15,-0.63,-1.57,0.55,-1.39,0.90,
17:41:52:203,0.15,-0.63,-1.57,0.48,-1.32,0.82,
17:41:52:204,0.04,-0.71,-1.69,0.48,-1.32,0.82,
17:41:52:204,0.04,-0.71,-1.69,0.40,-1.23,0.73,
17:41:52:204,0.22,-0.69,-1.48,0.40,-1.23,0.73,
17:41:52:205,0.22,-0.69,-1.48,0.33,-1.15,0.64,
17:41:52:208,0.64,-0.56,-1.38,0.33,-1.15,0.64,
17:41:52:209,0.64,-0.56,-1.38,0.28,-1.09,0.53,
17:41:52:220,0.85,-0.36,-1.56,0.28,-1.09,0.53,
17:41:52:221,0.85,-0.36,-1.56,0.25,-1.06,0.41,
17:41:52:221,0.86,-0.35,-1.90,0.25,-1.06,0.41,
17:41:52:221,0.86,-0.35,-1.90,0.21,-1.01,0.29,
17:41:52:222,0.92,-0.55,-1.68,0.21,-1.01,0.29,
17:41:52:222,0.92,-0.55,-1.68,0.14,-0.95,0.18,
17:41:52:228,0.54,-0.58,-1.12,0.14,-0.95,0.18,
17:41:52:232,0.54,-0.58,-1.12,0.08,-0.90,0.10,
17:41:52:233,1.24,-0.84,-0.95,0.08,-0.90,0.10,
17:41:52:233,1.24,-0.84,-0.95,0.03,-0.85,0.04,
17:41:52:238,1.24,-0.84,-0.95,0.03,-0.73,-0.02,
17:41:52:238,0.08,-0.06,-1.66,0.03,-0.73,-0.02,
17:41:52:243,-0.37,-0.28,-1.68,0.03,-0.73,-0.02,
17:41:52:243,-0.37,-0.28,-1.68,0.03,-0.58,-0.04,
17:41:52:248,-0.55,-0.47,-1.83,0.03,-0.58,-0.04,
17:41:52:249,-0.55,-0.47,-1.83,0.01,-0.45,-0.02,
17:41:52:256,-1.28,-0.26,-1.93,0.01,-0.45,-0.02,
17:41:52:257,-1.28,-0.26,-1.93,-0.02,-0.32,0.01,
17:41:52:257,-1.84,-0.17,-2.10,-0.02,-0.32,0.01,
17:41:52:257,-1.84,-0.17,-2.10,-0.07,-0.20,0.09,
17:41:52:261,-2.22,0.08,-2.26,-0.07,-0.20,0.09,
17:41:52:262,-2.22,0.08,-2.26,-0.13,-0.09,0.20,
17:41:52:266,-2.22,0.08,-2.26,-0.19,0.03,0.30,
17:41:52:266,-2.20,0.13,-2.27,-0.19,0.03,0.30,
17:41:52:271,-1.89,-0.02,-1.95,-0.19,0.03,0.30,
17:41:52:271,-1.89,-0.02,-1.95,-0.25,0.11,0.38,
17:41:52:276,-1.68,0.06,-1.46,-0.25,0.11,0.38,
17:41:52:278,-1.68,0.06,-1.46,-0.31,0.12,0.44,
17:41:52:281,-1.68,0.06,-1.46,-0.35,0.08,0.49,
17:41:52:282,-1.19,-0.02,-1.19,-0.35,0.08,0.49,
17:41:52:285,-1.19,-0.02,-1.19,-0.38,0.02,0.53,
17:41:52:285,-0.80,0.09,-1.09,-0.38,0.02,0.53,
17:41:52:290,-0.80,0.09,-1.09,-0.37,-0.03,0.56,
17:41:52:290,-0.35,0.15,-1.01,-0.37,-0.03,0.56,
17:41:52:295,-0.35,0.15,-1.01,-0.36,-0.08,0.56,
17:41:52:295,0.18,0.21,-0.98,-0.36,-0.08,0.56,
17:41:52:300,0.65,0.31,-1.03,-0.36,-0.08,0.56,
17:41:52:300,0.65,0.31,-1.03,-0.33,-0.10,0.54,
17:41:52:304,0.65,0.31,-1.03,-0.30,-0.11,0.48,
17:41:52:305,1.11,0.34,-1.13,-0.30,-0.11,0.48,
17:41:52:315,1.11,0.34,-1.13,-0.27,-0.09,0.41,
17:41:52:316,1.41,0.33,-1.29,-0.27,-0.09,0.41,
17:41:52:317,1.41,0.33,-1.29,-0.26,-0.06,0.32,
17:41:52:317,1.52,0.34,-1.54,-0.26,-0.06,0.32,
17:41:52:320,1.52,0.34,-1.54,-0.26,-0.01,0.23,
17:41:52:320,1.47,0.37,-1.82,-0.26,-0.01,0.23,
17:41:52:324,1.47,0.37,-1.82,-0.27,0.04,0.15,
17:41:52:325,1.30,0.37,-2.08,-0.27,0.04,0.15,
17:41:52:337,1.30,0.37,-2.08,-0.30,0.11,0.09,
17:41:52:337,1.03,0.37,-2.30,-0.30,0.11,0.09,
17:41:52:338,0.60,0.34,-2.41,-0.30,0.11,0.09,
17:41:52:339,0.60,0.34,-2.41,-0.34,0.17,0.05,
17:41:52:339,0.60,0.34,-2.41,-0.37,0.24,0.03,
17:41:52:340,0.07,0.33,-2.36,-0.37,0.24,0.03,
17:41:52:349,-0.51,0.36,-2.12,-0.37,0.24,0.03,
17:41:52:350,-0.51,0.36,-2.12,-0.41,0.30,0.03,
17:41:52:350,-0.99,0.48,-1.85,-0.41,0.30,0.03,
17:41:52:351,-0.99,0.48,-1.85,-0.44,0.32,0.06,
17:41:52:354,-1.24,0.56,-1.52,-0.44,0.32,0.06,
17:41:52:354,-1.24,0.56,-1.52,-0.46,0.30,0.10,
17:41:52:365,-1.24,0.56,-1.52,-0.46,0.25,0.15,
17:41:52:366,-1.28,0.64,-1.24,-0.46,0.25,0.15,
17:41:52:366,-1.12,0.63,-0.90,-0.46,0.25,0.15,
17:41:52:367,-1.12,0.63,-0.90,-0.45,0.17,0.19,
17:41:52:385,-0.94,0.64,-0.64,-0.45,0.17,0.19,
17:41:52:386,-0.94,0.64,-0.64,-0.43,0.07,0.23,
17:41:52:386,-0.69,0.63,-0.38,-0.43,0.07,0.23,
17:41:52:387,-0.69,0.63,-0.38,-0.38,-0.05,0.25,
17:41:52:387,-0.69,0.63,-0.38,-0.33,-0.18,0.26,
17:41:52:387,-0.45,0.71,-0.26,-0.33,-0.18,0.26,
17:41:52:387,-0.17,0.76,-0.22,-0.33,-0.18,0.26,
17:41:52:388,-0.17,0.76,-0.22,-0.27,-0.29,0.25,
17:41:52:389,0.06,0.78,-0.30,-0.27,-0.29,0.25,
17:41:52:390,0.06,0.78,-0.30,-0.20,-0.38,0.24,
17:41:52:392,0.16,0.83,-0.44,-0.20,-0.38,0.24,
17:41:52:393,0.16,0.83,-0.44,-0.14,-0.44,0.21,
17:41:52:397,0.16,0.83,-0.44,-0.09,-0.47,0.18,
17:41:52:398,0.18,0.91,-0.71,-0.09,-0.47,0.18,
17:41:52:402,0.15,0.97,-1.07,-0.09,-0.47,0.18,
17:41:52:403,0.15,0.97,-1.07,-0.06,-0.47,0.16,
17:41:52:407,0.13,0.97,-1.50,-0.06,-0.47,0.16,
17:41:52:408,0.13,0.97,-1.50,-0.05,-0.43,0.15,
17:41:52:411,0.13,0.97,-1.50,-0.06,-0.36,0.14,
17:41:52:412,0.12,0.96,-1.90,-0.06,-0.36,0.14,
17:41:52:416,0.12,0.96,-1.90,-0.10,-0.27,0.13,
17:41:52:417,0.15,0.91,-2.23,-0.10,-0.27,0.13,
17:41:52:422,0.15,0.91,-2.23,-0.16,-0.16,0.12,
17:41:52:422,0.20,0.86,-2.45,-0.16,-0.16,0.12,
17:41:52:428,0.27,0.82,-2.48,-0.16,-0.16,0.12,
17:41:52:428,0.27,0.82,-2.48,-0.22,-0.06,0.10,
17:41:52:431,0.27,0.82,-2.48,-0.29,0.03,0.08,
17:41:52:432,0.30,0.78,-2.36,-0.29,0.03,0.08,
17:41:52:436,0.30,0.78,-2.36,-0.37,0.09,0.04,
17:41:52:437,0.18,0.80,-2.13,-0.37,0.09,0.04,
17:41:52:442,-0.08,0.92,-1.82,-0.37,0.09,0.04,
17:41:52:442,-0.08,0.92,-1.82,-0.42,0.11,0.01,
17:41:52:449,-0.31,1.06,-1.46,-0.42,0.11,0.01,
17:41:52:450,-0.31,1.06,-1.46,-0.47,0.09,-0.01,
17:41:52:450,-0.31,1.06,-1.46,-0.51,0.04,-0.02,
17:41:52:451,-0.40,1.15,-1.12,-0.51,0.04,-0.02,
17:41:52:455,-0.40,1.15,-1.12,-0.52,-0.03,-0.02,
17:41:52:455,-0.39,1.18,-0.76,-0.52,-0.03,-0.02,
17:41:52:460,-0.26,1.17,-0.47,-0.52,-0.03,-0.02,
17:41:52:461,-0.26,1.17,-0.47,-0.52,-0.12,-0.02,
17:41:52:465,-0.26,1.17,-0.47,-0.51,-0.23,-0.02,
17:41:52:465,-0.01,1.19,-0.20,-0.51,-0.23,-0.02,
17:41:52:471,0.30,1.23,0.02,-0.51,-0.23,-0.02,
17:41:52:471,0.30,1.23,0.02,-0.48,-0.33,-0.02,
17:41:52:475,0.66,1.18,0.17,-0.48,-0.33,-0.02,
17:41:52:476,0.66,1.18,0.17,-0.45,-0.41,-0.03,
17:41:52:480,0.66,1.18,0.17,-0.41,-0.47,-0.05,
17:41:52:480,1.03,1.10,0.20,-0.41,-0.47,-0.05,
17:41:52:484,1.22,0.97,0.19,-0.41,-0.47,-0.05,
17:41:52:484,1.22,0.97,0.19,-0.38,-0.51,-0.08,
17:41:52:489,1.32,0.89,0.06,-0.38,-0.51,-0.08,
17:41:52:489,1.32,0.89,0.06,-0.35,-0.52,-0.11,
17:41:52:495,1.31,0.82,-0.02,-0.35,-0.52,-0.11,
17:41:52:496,1.31,0.82,-0.02,-0.35,-0.52,-0.14,
17:41:52:499,1.31,0.82,-0.02,-0.36,-0.49,-0.17,
17:41:52:499,1.22,0.77,-0.07,-0.36,-0.49,-0.17,
17:41:52:504,1.22,0.77,-0.07,-0.39,-0.47,-0.20,
17:41:52:504,1.05,0.66,-0.15,-0.39,-0.47,-0.20,
17:41:52:508,0.85,0.55,-0.16,-0.39,-0.47,-0.20,
17:41:52:509,0.85,0.55,-0.16,-0.44,-0.44,-0.23,
17:41:52:515,0.65,0.55,-0.05,-0.44,-0.44,-0.23,
17:41:52:515,0.65,0.55,-0.05,-0.49,-0.42,-0.24,
17:41:52:519,0.65,0.55,-0.05,-0.56,-0.40,-0.25,
17:41:52:520,0.56,0.42,0.10,-0.56,-0.40,-0.25,
17:41:52:526,0.56,0.42,0.10,-0.63,-0.39,-0.26,
17:41:52:527,0.49,0.31,0.32,-0.63,-0.39,-0.26,
17:41:52:529,0.49,0.31,0.32,-0.69,-0.41,-0.26,
17:41:52:530,0.46,0.18,0.55,-0.69,-0.41,-0.26,
17:41:52:533,0.39,0.10,0.92,-0.69,-0.41,-0.26,
17:41:52:534,0.39,0.10,0.92,-0.75,-0.44,-0.26,
17:41:52:538,0.31,0.05,1.26,-0.75,-0.44,-0.26,
17:41:52:539,0.31,0.05,1.26,-0.78,-0.51,-0.25,
17:41:52:556,0.31,0.06,1.51,-0.78,-0.51,-0.25,
17:41:52:558,0.31,0.06,1.51,-0.80,-0.58,-0.24,
17:41:52:559,0.34,0.05,1.80,-0.80,-0.58,-0.24,
17:41:52:560,0.34,0.05,1.80,-0.80,-0.66,-0.24,
17:41:52:561,0.34,0.05,1.80,-0.78,-0.72,-0.24,
17:41:52:565,0.46,0.04,2.03,-0.78,-0.72,-0.24,
17:41:52:566,0.60,0.06,2.22,-0.78,-0.72,-0.24,
17:41:52:567,0.60,0.06,2.22,-0.75,-0.77,-0.26,
17:41:52:579,0.91,0.05,2.18,-0.75,-0.77,-0.26,
17:41:52:581,1.35,0.04,1.90,-0.75,-0.77,-0.26,
17:41:52:582,1.35,0.04,1.90,-0.71,-0.78,-0.29,
17:41:52:582,1.35,0.04,1.90,-0.66,-0.70,-0.34,
17:41:52:582,1.35,0.04,1.90,-0.60,-0.55,-0.41,
17:41:52:583,1.79,-0.08,1.43,-0.60,-0.55,-0.41,
17:41:52:583,1.79,-0.08,1.43,-0.55,-0.34,-0.49,
17:41:52:583,2.03,-0.28,1.02,-0.55,-0.34,-0.49,
17:41:52:584,2.03,-0.28,1.02,-0.52,-0.15,-0.57,
17:41:52:584,2.04,-0.53,0.86,-0.52,-0.15,-0.57,
17:41:52:587,2.04,-0.53,0.86,-0.52,-0.05,-0.66,
17:41:52:587,1.66,-0.56,0.70,-0.52,-0.05,-0.66,
17:41:52:592,1.13,-0.40,0.49,-0.52,-0.05,-0.66,
17:41:52:593,1.13,-0.40,0.49,-0.55,-0.05,-0.74,
17:41:52:598,1.13,-0.40,0.49,-0.60,-0.12,-0.79,
17:41:52:599,0.52,-0.18,0.25,-0.60,-0.12,-0.79,
17:41:52:601,-0.06,-0.03,0.01,-0.60,-0.12,-0.79,
17:41:52:602,-0.06,-0.03,0.01,-0.67,-0.22,-0.82,
17:41:52:606,-0.62,0.02,-0.23,-0.67,-0.22,-0.82,
17:41:52:606,-0.62,0.02,-0.23,-0.75,-0.32,-0.83,
17:41:52:634,-1.09,0.08,-0.35,-0.75,-0.32,-0.83,
17:41:52:635,-1.09,0.08,-0.35,-0.83,-0.41,-0.80,
17:41:52:635,-1.52,0.18,-0.29,-0.83,-0.41,-0.80,
17:41:52:635,-1.52,0.18,-0.29,-0.92,-0.49,-0.75,
17:41:52:636,-1.52,0.18,-0.29,-1.02,-0.58,-0.66,
17:41:52:636,-1.76,0.10,-0.27,-1.02,-0.58,-0.66,
17:41:52:636,-1.78,-0.05,-0.13,-1.02,-0.58,-0.66,
17:41:52:637,-1.78,-0.05,-0.13,-1.12,-0.68,-0.56,
17:41:52:637,-1.78,-0.05,-0.13,-1.21,-0.79,-0.46,
17:41:52:637,-1.71,-0.17,0.10,-1.21,-0.79,-0.46,
17:41:52:638,-1.71,-0.17,0.10,-1.29,-0.88,-0.37,
17:41:52:638,-1.70,-0.12,0.42,-1.29,-0.88,-0.37,
17:41:52:640,-1.70,-0.12,0.42,-1.34,-0.96,-0.28,
17:41:52:641,-1.63,-0.02,0.82,-1.34,-0.96,-0.28,
17:41:52:646,-1.63,-0.02,0.82,-1.37,-1.04,-0.20,
17:41:52:646,-1.38,0.02,1.24,-1.37,-1.04,-0.20,
17:41:52:650,-1.38,0.02,1.24,-1.36,-1.14,-0.13,
17:41:52:651,-1.04,0.03,1.58,-1.36,-1.14,-0.13,
17:41:52:655,-1.04,0.03,1.58,-1.33,-1.23,-0.06,
17:41:52:656,-0.81,0.11,1.77,-1.33,-1.23,-0.06,
17:41:52:660,-0.81,0.11,1.77,-1.28,-1.33,0.01,
17:41:52:661,-0.58,0.13,1.88,-1.28,-1.33,0.01,
17:41:52:666,-0.58,0.13,1.88,-1.21,-1.41,0.06,
17:41:52:666,-0.33,0.04,1.90,-1.21,-1.41,0.06,
17:41:52:670,-0.33,0.04,1.90,-1.14,-1.48,0.11,
17:41:52:670,-0.01,-0.13,1.84,-1.14,-1.48,0.11,
17:41:52:674,-0.01,-0.13,1.84,-1.07,-1.55,0.14,
17:41:52:674,0.32,-0.33,1.70,-1.07,-1.55,0.14,
17:41:52:682,0.32,-0.33,1.70,-0.99,-1.61,0.16,
17:41:52:683,0.69,-0.63,1.48,-0.99,-1.61,0.16,
17:41:52:684,0.69,-0.63,1.48,-0.92,-1.67,0.16,
17:41:52:684,1.01,-0.93,1.21,-0.92,-1.67,0.16,
17:41:52:689,1.01,-0.93,1.21,-0.85,-1.72,0.15,
17:41:52:690,1.24,-1.19,0.93,-0.85,-1.72,0.15,
17:41:52:700,1.24,-1.19,0.93,-0.79,-1.77,0.13,
17:41:52:701,1.38,-1.41,0.68,-0.79,-1.77,0.13,
17:41:52:701,1.47,-1.62,0.45,-0.79,-1.77,0.13,
17:41:52:701,1.47,-1.62,0.45,-0.74,-1.82,0.10,
17:41:52:703,1.52,-1.81,0.22,-0.74,-1.82,0.10,
17:41:52:703,1.52,-1.81,0.22,-0.70,-1.86,0.06,
17:41:52:708,1.44,-1.87,0.06,-0.70,-1.86,0.06,
17:41:52:709,1.44,-1.87,0.06,-0.65,-1.89,0.02,
17:41:52:714,1.31,-1.88,0.03,-0.65,-1.89,0.02,
17:41:52:715,1.31,-1.88,0.03,-0.60,-1.90,-0.01,
17:41:52:718,1.31,-1.88,0.03,-0.53,-1.93,-0.04,
17:41:52:719,1.08,-1.77,0.13,-0.53,-1.93,-0.04,
17:41:52:723,1.08,-1.77,0.13,-0.44,-1.99,-0.05,
17:41:52:723,0.76,-1.69,0.14,-0.44,-1.99,-0.05,
17:41:52:728,0.76,-1.69,0.14,-0.33,-2.07,-0.05,
17:41:52:729,0.46,-1.65,0.07,-0.33,-2.07,-0.05,
17:41:52:732,0.46,-1.65,0.07,-0.20,-2.15,-0.03,
17:41:52:733,0.28,-1.62,0.09,-0.20,-2.15,-0.03,
17:41:52:738,0.10,-1.58,0.14,-0.20,-2.15,-0.03,
17:41:52:738,0.10,-1.58,0.14,-0.05,-2.25,-0.01,
17:41:52:747,0.10,-1.58,0.14,0.12,-2.39,0.02,
17:41:52:753,-0.15,-1.59,-0.03,0.12,-2.39,0.02,
17:41:52:753,-0.15,-1.59,-0.03,0.30,-2.54,0.05,
17:41:52:754,-0.26,-1.63,-0.25,0.30,-2.54,0.05,
17:41:52:754,-0.26,-1.63,-0.25,0.48,-2.70,0.07,
17:41:52:754,-0.35,-1.76,-0.60,0.48,-2.70,0.07,
17:41:52:757,-0.37,-1.87,-0.99,0.48,-2.70,0.07,
17:41:52:758,-0.37,-1.87,-0.99,0.67,-2.87,0.09,
17:41:52:761,-0.38,-2.01,-1.42,0.67,-2.87,0.09,
17:41:52:762,-0.38,-2.01,-1.42,0.85,-3.05,0.11,
17:41:52:766,-0.38,-2.01,-1.42,1.03,-3.23,0.11,
17:41:52:767,-0.35,-2.10,-1.90,1.03,-3.23,0.11,
17:41:52:770,-0.35,-2.10,-1.90,1.20,-3.41,0.10,
17:41:52:771,-0.25,-2.08,-2.19,1.20,-3.41,0.10,
17:41:52:789,-0.09,-2.04,-2.49,1.20,-3.41,0.10,
17:41:52:790,-0.09,-2.04,-2.49,1.33,-3.62,0.09,
17:41:52:791,0.10,-1.99,-2.59,1.33,-3.62,0.09,
17:41:52:791,0.10,-1.99,-2.59,1.44,-3.84,0.08,
17:41:52:792,0.29,-1.98,-2.73,1.44,-3.84,0.08,
17:41:52:793,0.29,-1.98,-2.73,1.52,-4.10,0.08,
17:41:52:794,0.45,-2.10,-3.02,1.52,-4.10,0.08,
17:41:52:795,0.45,-2.10,-3.02,1.58,-4.34,0.06,
17:41:52:795,0.45,-2.10,-3.02,1.63,-4.55,0.01,
17:41:52:795,0.70,-2.26,-3.36,1.63,-4.55,0.01,
17:41:52:821,0.70,-2.26,-3.36,1.67,-4.69,-0.06,
17:41:52:823,0.86,-2.37,-3.84,1.67,-4.69,-0.06,
17:41:52:824,0.86,-2.37,-3.84,1.71,-4.78,-0.15,
17:41:52:825,1.00,-2.46,-4.07,1.71,-4.78,-0.15,
17:41:52:829,0.92,-2.50,-4.15,1.71,-4.78,-0.15,
17:41:52:832,0.92,-2.50,-4.15,1.74,-4.83,-0.25,
17:41:52:834,0.66,-2.49,-4.11,1.74,-4.83,-0.25,
17:41:52:834,0.66,-2.49,-4.11,1.76,-4.87,-0.35,
17:41:52:835,0.96,-2.50,-4.12,1.76,-4.87,-0.35,
17:41:52:836,0.96,-2.50,-4.12,1.76,-4.93,-0.44,
17:41:52:836,1.76,-2.57,-4.45,1.76,-4.93,-0.44,
17:41:52:836,1.76,-2.57,-4.45,1.76,-5.01,-0.55,
17:41:52:837,1.76,-2.57,-4.45,1.74,-5.07,-0.69,
17:41:52:837,1.22,-2.57,-4.51,1.74,-5.07,-0.69,
17:41:52:838,0.25,-2.48,-4.31,1.74,-5.07,-0.69,
17:41:52:838,0.25,-2.48,-4.31,1.75,-5.07,-0.81,
17:41:52:839,0.25,-2.48,-4.31,1.78,-5.04,-0.89,
17:41:52:839,-0.91,-2.42,-4.17,1.78,-5.04,-0.89,
17:41:52:847,-1.84,-2.32,-4.24,1.78,-5.04,-0.89,
17:41:52:851,-1.84,-2.32,-4.24,1.83,-4.96,-0.92,
17:41:52:852,-1.84,-2.32,-4.24,1.88,-4.86,-0.89,
17:41:52:855,-2.51,-2.15,-4.44,1.88,-4.86,-0.89,
17:41:52:883,-2.51,-2.15,-4.44,1.91,-4.75,-0.83,
17:41:52:884,-3.02,-1.91,-4.75,1.91,-4.75,-0.83,
17:41:52:884,-3.66,-1.74,-5.11,1.91,-4.75,-0.83,
17:41:52:885,-3.66,-1.74,-5.11,1.92,-4.65,-0.76,
17:41:52:886,-3.66,-1.74,-5.11,1.90,-4.54,-0.67,
17:41:52:888,-4.21,-1.63,-5.38,1.90,-4.54,-0.67,
17:41:52:889,-4.69,-1.57,-5.51,1.90,-4.54,-0.67,
17:41:52:890,-4.69,-1.57,-5.51,1.87,-4.42,-0.56,
17:41:52:891,-4.84,-1.92,-5.23,1.87,-4.42,-0.56,
17:41:52:892,-4.84,-1.92,-5.23,1.82,-4.31,-0.44,
17:41:52:893,-4.84,-1.92,-5.23,1.75,-4.25,-0.32,
17:41:52:894,-5.20,-2.02,-5.37,1.75,-4.25,-0.32,
17:41:52:895,-5.58,-2.00,-5.67,1.75,-4.25,-0.32,
17:41:52:897,-5.58,-2.00,-5.67,1.65,-4.21,-0.18,
17:41:52:898,-5.90,-1.94,-6.03,1.65,-4.21,-0.18,
17:41:52:899,-5.90,-1.94,-6.03,1.54,-4.19,-0.05,
17:41:52:900,-5.90,-1.94,-6.03,1.41,-4.16,0.07,
17:41:52:901,-6.22,-1.89,-6.29,1.41,-4.16,0.07,
17:41:52:902,-6.56,-1.86,-6.52,1.41,-4.16,0.07,
17:41:52:903,-6.56,-1.86,-6.52,1.27,-4.12,0.21,
17:41:52:904,-6.89,-1.91,-6.65,1.27,-4.12,0.21,
17:41:52:904,-6.89,-1.91,-6.65,1.11,-4.07,0.35,
17:41:52:906,-6.89,-1.91,-6.65,0.95,-4.02,0.50,
17:41:52:907,-7.25,-1.97,-6.74,0.95,-4.02,0.50,
17:41:52:912,-7.57,-2.09,-6.84,0.95,-4.02,0.50,
17:41:52:912,-7.57,-2.09,-6.84,0.77,-3.96,0.66,
17:41:52:916,-7.57,-2.09,-6.84,0.58,-3.89,0.84,
17:41:52:917,-7.83,-2.14,-6.88,0.58,-3.89,0.84,
17:41:52:921,-8.02,-2.24,-6.93,0.58,-3.89,0.84,
17:41:52:922,-8.02,-2.24,-6.93,0.39,-3.80,1.03,
17:41:52:926,-8.02,-2.24,-6.93,0.19,-3.70,1.23,
17:41:52:927,-8.10,-2.22,-6.96,0.19,-3.70,1.23,
17:41:52:931,-8.03,-2.29,-7.08,0.19,-3.70,1.23,
17:41:52:932,-8.03,-2.29,-7.08,-0.00,-3.58,1.43,
17:41:52:936,-8.03,-2.29,-7.08,-0.19,-3.46,1.63,
17:41:52:936,-7.68,-2.48,-6.87,-0.19,-3.46,1.63,
17:41:52:942,-7.68,-2.48,-6.87,-0.38,-3.36,1.83,
17:41:52:943,-7.00,-2.69,-6.61,-0.38,-3.36,1.83,
17:41:52:946,-6.09,-2.79,-6.30,-0.38,-3.36,1.83,
17:41:52:947,-6.09,-2.79,-6.30,-0.57,-3.28,2.03,
17:41:52:951,-5.20,-2.78,-6.06,-0.57,-3.28,2.03,
17:41:52:952,-5.20,-2.78,-6.06,-0.75,-3.21,2.21,
17:41:52:956,-4.46,-2.71,-5.90,-0.75,-3.21,2.21,
17:41:52:956,-4.46,-2.71,-5.90,-0.93,-3.12,2.36,
17:41:52:960,-3.84,-2.65,-5.71,-0.93,-3.12,2.36,
17:41:52:961,-3.84,-2.65,-5.71,-1.10,-2.99,2.48,
17:41:52:965,-3.23,-2.67,-5.50,-1.10,-2.99,2.48,
17:41:52:966,-3.23,-2.67,-5.50,-1.27,-2.82,2.59,
17:41:52:970,-3.23,-2.67,-5.50,-1.44,-2.64,2.67,
17:41:52:970,-2.60,-2.86,-5.22,-1.44,-2.64,2.67,
17:41:52:976,-2.60,-2.86,-5.22,-1.60,-2.44,2.73,
17:41:52:976,-2.03,-3.15,-4.80,-1.60,-2.44,2.73,
17:41:52:979,-1.59,-3.41,-4.18,-1.60,-2.44,2.73,
17:41:52:980,-1.59,-3.41,-4.18,-1.74,-2.23,2.76,
17:41:52:986,-1.59,-3.41,-4.18,-1.86,-2.05,2.76,
17:41:52:987,-1.30,-3.61,-3.43,-1.86,-2.05,2.76,
17:41:52:990,-1.30,-3.61,-3.43,-1.96,-1.90,2.73,
17:41:52:991,-1.27,-3.66,-2.59,-1.96,-1.90,2.73,
17:41:52:996,-1.27,-3.66,-2.59,-2.03,-1.78,2.70,
17:41:52:997,-1.52,-3.59,-1.74,-2.03,-1.78,2.70,
17:41:52:999,-1.52,-3.59,-1.74,-2.06,-1.69,2.67,
17:41:53:000,-1.86,-3.45,-0.93,-2.06,-1.69,2.67,
17:41:53:004,-1.86,-3.45,-0.93,-2.05,-1.66,2.66,
17:41:53:005,-2.07,-3.28,-0.15,-2.05,-1.66,2.66,
17:41:53:009,-1.97,-3.10,0.49,-2.05,-1.66,2.66,
17:41:53:010,-1.97,-3.10,0.49,-2.01,-1.68,2.65,
17:41:53:015,-1.63,-2.95,0.99,-2.01,-1.68,2.65,
17:41:53:017,-1.63,-2.95,0.99,-1.94,-1.76,2.64,
17:41:53:021,-0.73,-2.92,2.69,-1.94,-1.76,2.64,
17:41:53:022,-0.73,-2.92,2.69,-1.86,-1.93,2.63,
17:41:53:026,-0.73,-2.92,2.69,-1.76,-2.26,2.62,
17:41:53:027,-0.28,-2.82,3.23,-1.76,-2.26,2.62,
17:41:53:030,0.06,-2.79,3.45,-1.76,-2.26,2.62,
17:41:53:031,0.06,-2.79,3.45,-1.61,-2.60,2.60,
17:41:53:039,0.06,-2.79,3.45,-1.44,-2.91,2.58,
17:41:53:040,0.64,-2.81,3.39,-1.44,-2.91,2.58,
17:41:53:041,0.64,-2.81,3.39,-1.29,-3.17,2.56,
17:41:53:044,1.15,-2.79,3.26,-1.29,-3.17,2.56,
17:41:53:045,1.15,-2.79,3.26,-1.17,-3.40,2.53,
17:41:53:046,1.40,-2.66,3.09,-1.17,-3.40,2.53,
17:41:53:047,1.68,-2.49,2.91,-1.17,-3.40,2.53,
17:41:53:048,1.68,-2.49,2.91,-1.07,-3.60,2.51,
17:41:53:052,1.98,-2.25,2.72,-1.07,-3.60,2.51,
17:41:53:053,1.98,-2.25,2.72,-0.98,-3.74,2.51,
17:41:53:057,1.98,-2.25,2.72,-0.89,-3.83,2.51,
17:41:53:058,2.39,-1.93,2.37,-0.89,-3.83,2.51,
17:41:53:062,2.39,-1.93,2.37,-0.80,-3.85,2.50,
17:41:53:062,2.92,-1.66,2.30,-0.80,-3.85,2.50,
17:41:53:067,3.41,-1.35,2.34,-0.80,-3.85,2.50,
17:41:53:067,3.41,-1.35,2.34,-0.72,-3.84,2.48,
17:41:53:071,3.67,-1.07,2.31,-0.72,-3.84,2.48,
17:41:53:072,3.67,-1.07,2.31,-0.63,-3.82,2.44,
17:41:53:077,3.82,-0.81,2.16,-0.63,-3.82,2.44,
17:41:53:077,3.82,-0.81,2.16,-0.54,-3.78,2.39,
17:41:53:082,3.93,-0.65,1.87,-0.54,-3.78,2.39,
17:41:53:083,3.93,-0.65,1.87,-0.45,-3.74,2.35,
17:41:53:086,4.08,-0.47,1.09,-0.45,-3.74,2.35,
17:41:53:087,4.08,-0.47,1.09,-0.35,-3.65,2.29,
17:41:53:091,4.08,-0.47,1.09,-0.28,-3.52,2.23,
17:41:53:092,4.26,-0.23,0.73,-0.28,-3.52,2.23,
17:41:53:132,4.29,0.01,0.06,-0.28,-3.52,2.23,
17:41:53:132,4.29,0.01,0.06,-0.22,-3.38,2.18,
17:41:53:133,4.32,0.32,-0.60,-0.22,-3.38,2.18,
17:41:53:133,4.32,0.32,-0.60,-0.18,-3.20,2.14,
17:41:53:134,4.32,0.32,-0.60,-0.15,-2.96,2.13,
17:41:53:136,4.37,0.60,-1.29,-0.15,-2.96,2.13,
17:41:53:137,4.37,0.60,-1.29,-0.14,-2.70,2.13,
17:41:53:137,4.58,0.82,-1.74,-0.14,-2.70,2.13,
17:41:53:137,4.58,0.82,-1.74,-0.15,-2.43,2.15,
17:41:53:138,4.92,0.91,-1.67,-0.15,-2.43,2.15,
17:41:53:139,4.92,0.91,-1.67,-0.18,-2.19,2.17,
17:41:53:140,5.35,0.79,-1.29,-0.18,-2.19,2.17,
17:41:53:142,5.81,0.55,-0.77,-0.18,-2.19,2.17,
17:41:53:143,5.81,0.55,-0.77,-0.21,-1.98,2.20,
17:41:53:144,5.81,0.55,-0.77,-0.23,-1.78,2.21,
17:41:53:145,6.29,0.39,-0.29,-0.23,-1.78,2.21,
17:41:53:146,6.29,0.39,-0.29,-0.21,-1.58,2.23,
17:41:53:147,6.69,0.34,0.51,-0.21,-1.58,2.23,
17:41:53:147,6.69,0.34,0.51,-0.15,-1.43,2.25,
17:41:53:147,7.32,0.47,1.52,-0.15,-1.43,2.25,
17:41:53:148,7.32,0.47,1.52,-0.03,-1.35,2.26,
17:41:53:148,8.43,0.43,2.73,-0.03,-1.35,2.26,
17:41:53:149,8.43,0.43,2.73,0.15,-1.34,2.22,
17:41:53:150,9.54,0.42,3.89,0.15,-1.34,2.22,
17:41:53:154,9.54,0.42,3.89,0.39,-1.39,2.16,
17:41:53:156,10.68,0.44,4.67,0.39,-1.39,2.16,
17:41:53:161,10.68,0.44,4.67,0.67,-1.47,2.07,
17:41:53:161,11.95,0.50,5.77,0.67,-1.47,2.07,
17:41:53:164,13.02,0.55,6.48,0.67,-1.47,2.07,
17:41:53:165,13.02,0.55,6.48,1.00,-1.64,1.91,
17:41:53:169,13.02,0.55,6.48,1.35,-1.89,1.70,
17:41:53:170,13.70,0.80,7.05,1.35,-1.89,1.70,
17:41:53:175,13.86,1.12,7.36,1.35,-1.89,1.70,
17:41:53:176,13.86,1.12,7.36,1.72,-2.22,1.45,
17:41:53:179,13.86,1.12,7.36,2.10,-2.63,1.19,
17:41:53:180,13.51,1.73,7.12,2.10,-2.63,1.19,
17:41:53:184,12.63,2.36,6.14,2.10,-2.63,1.19,
17:41:53:185,12.63,2.36,6.14,2.48,-3.05,0.95,
17:41:53:189,12.63,2.36,6.14,2.82,-3.40,0.74,
17:41:53:189,11.46,3.03,4.90,2.82,-3.40,0.74,
17:41:53:195,11.46,3.03,4.90,3.11,-3.70,0.58,
17:41:53:196,10.03,3.65,3.04,3.11,-3.70,0.58,
17:41:53:198,8.53,4.12,1.17,3.11,-3.70,0.58,
17:41:53:199,8.53,4.12,1.17,3.32,-3.89,0.48,
17:41:53:204,8.53,4.12,1.17,3.43,-4.01,0.43,
17:41:53:204,6.92,4.29,-0.97,3.43,-4.01,0.43,
17:41:53:208,6.92,4.29,-0.97,3.45,-4.04,0.44,
17:41:53:209,5.24,4.56,-2.46,3.45,-4.04,0.44,
17:41:53:213,5.24,4.56,-2.46,3.39,-4.02,0.50,
17:41:53:214,4.78,4.67,-4.85,3.39,-4.02,0.50,
17:41:53:219,5.21,4.80,-6.69,3.39,-4.02,0.50,
17:41:53:220,5.21,4.80,-6.69,3.22,-3.85,0.59,
17:41:53:222,5.21,4.80,-6.69,2.97,-3.60,0.64,
17:41:53:223,5.66,4.90,-8.06,2.97,-3.60,0.64,
17:41:53:228,5.66,4.90,-8.06,2.67,-3.29,0.66,
17:41:53:230,5.49,5.20,-8.75,2.67,-3.29,0.66,
17:41:53:231,5.49,5.20,-8.75,2.36,-2.91,0.67,
17:41:53:232,5.48,5.36,-9.41,2.36,-2.91,0.67,
17:41:53:237,5.48,5.36,-9.41,2.03,-2.49,0.68,
17:41:53:238,5.39,5.61,-9.51,2.03,-2.49,0.68,
17:41:53:243,5.35,5.76,-9.39,2.03,-2.49,0.68,
17:41:53:244,5.35,5.76,-9.39,1.68,-2.08,0.69,
17:41:53:247,5.43,5.78,-8.87,1.68,-2.08,0.69,
17:41:53:249,5.43,5.78,-8.87,1.33,-1.69,0.70,
17:41:53:253,5.66,5.67,-8.31,1.33,-1.69,0.70,
17:41:53:254,5.66,5.67,-8.31,0.99,-1.33,0.72,
17:41:53:257,5.84,5.53,-7.27,0.99,-1.33,0.72,
17:41:53:258,5.84,5.53,-7.27,0.68,-0.98,0.73,
17:41:53:262,6.17,5.46,-6.16,0.68,-0.98,0.73,
17:41:53:263,6.17,5.46,-6.16,0.42,-0.68,0.73,
17:41:53:266,6.86,5.51,-4.82,0.42,-0.68,0.73,
17:41:53:268,6.86,5.51,-4.82,0.21,-0.45,0.72,
17:41:53:272,7.24,5.39,-4.05,0.21,-0.45,0.72,
17:41:53:273,7.24,5.39,-4.05,0.06,-0.25,0.69,
17:41:53:276,7.24,5.39,-4.05,-0.07,-0.04,0.65,
17:41:53:277,7.28,5.29,-3.22,-0.07,-0.04,0.65,
17:41:53:280,7.40,5.30,-2.21,-0.07,-0.04,0.65,
17:41:53:281,7.40,5.30,-2.21,-0.17,0.10,0.64,
17:41:53:286,7.63,5.38,-1.97,-0.17,0.10,0.64,
17:41:53:287,7.63,5.38,-1.97,-0.25,0.11,0.64,
17:41:53:290,7.63,5.38,-1.97,-0.29,0.12,0.62,
17:41:53:291,7.83,5.47,-1.71,-0.29,0.12,0.62,
17:41:53:295,7.83,5.60,-0.83,-0.29,0.12,0.62,
17:41:53:296,7.83,5.60,-0.83,-0.32,0.14,0.58,
17:41:53:300,7.79,5.53,-0.73,-0.32,0.14,0.58,
17:41:53:301,7.79,5.53,-0.73,-0.34,0.09,0.54,
17:41:53:306,7.79,5.53,-0.73,-0.35,0.05,0.50,
17:41:53:308,7.92,5.49,-0.44,-0.35,0.05,0.50,
17:41:53:310,8.13,5.46,0.13,-0.35,0.05,0.50,
17:41:53:312,8.13,5.46,0.13,-0.34,0.00,0.45,
17:41:53:318,8.13,5.46,0.13,-0.33,-0.08,0.39,
17:41:53:319,8.49,5.32,0.38,-0.33,-0.08,0.39,
17:41:53:320,8.82,5.23,0.90,-0.33,-0.08,0.39,
17:41:53:321,8.82,5.23,0.90,-0.29,-0.14,0.30,
17:41:53:330,9.15,5.18,1.58,-0.29,-0.14,0.30,
17:41:53:330,9.35,5.12,2.23,-0.29,-0.14,0.30,
17:41:53:331,9.35,5.12,2.23,-0.22,-0.17,0.19,
17:41:53:331,9.35,5.12,2.23,-0.12,-0.18,0.03,
17:41:53:334,9.35,5.12,2.23,0.01,-0.16,-0.15,
17:41:53:334,9.30,5.12,2.89,0.01,-0.16,-0.15,
17:41:53:362,9.30,5.12,2.89,0.15,-0.13,-0.34,
17:41:53:362,9.05,5.00,3.24,0.15,-0.13,-0.34,
17:41:53:363,9.05,5.00,3.24,0.30,-0.10,-0.54,
17:41:53:363,8.78,4.78,3.51,0.30,-0.10,-0.54,
17:41:53:364,8.78,4.78,3.51,0.44,-0.06,-0.75,
17:41:53:364,8.30,4.70,3.52,0.44,-0.06,-0.75,
17:41:53:365,8.30,4.70,3.52,0.58,-0.02,-0.97,
17:41:53:366,7.61,4.54,3.11,0.58,-0.02,-0.97,
17:41:53:367,7.61,4.54,3.11,0.69,0.10,-1.18,
17:41:53:367,6.81,4.28,2.88,0.69,0.10,-1.18,
17:41:53:368,6.81,4.28,2.88,0.79,0.24,-1.39,
17:41:53:368,5.94,4.18,2.51,0.79,0.24,-1.39,
17:41:53:369,5.05,4.24,2.36,0.79,0.24,-1.39,
17:41:53:369,5.05,4.24,2.36,0.87,0.38,-1.59,
17:41:53:372,5.05,4.24,2.36,0.93,0.46,-1.75,
17:41:53:373,3.90,4.14,2.47,0.93,0.46,-1.75,
17:41:53:378,3.90,4.14,2.47,0.97,0.50,-1.88,
17:41:53:379,2.87,4.07,2.64,0.97,0.50,-1.88,
17:41:53:383,2.87,4.07,2.64,1.00,0.48,-1.99,
17:41:53:383,2.17,3.93,2.40,1.00,0.48,-1.99,
17:41:53:388,2.17,3.93,2.40,1.03,0.45,-2.08,
17:41:53:389,1.88,3.69,1.85,1.03,0.45,-2.08,
17:41:53:394,1.88,3.69,1.85,1.04,0.44,-2.20,
17:41:53:395,1.71,3.34,1.53,1.04,0.44,-2.20,
17:41:53:396,1.71,3.34,1.53,1.03,0.42,-2.34,
17:41:53:398,1.11,2.96,1.16,1.03,0.42,-2.34,
17:41:53:401,1.11,2.96,1.16,1.03,0.45,-2.46,
17:41:53:402,-1.14,2.93,2.22,1.03,0.45,-2.46,
17:41:53:406,-1.14,2.93,2.22,1.11,0.52,-2.51,
17:41:53:407,-1.32,2.69,2.65,1.11,0.52,-2.51,
17:41:53:411,-1.32,2.69,2.65,1.21,0.56,-2.54,
17:41:53:412,-0.96,2.49,2.05,1.21,0.56,-2.54,
17:41:53:416,-0.87,2.64,1.09,1.21,0.56,-2.54,
17:41:53:417,-0.87,2.64,1.09,1.28,0.63,-2.56,
17:41:53:422,-0.87,2.64,1.09,1.35,0.72,-2.48,
17:41:53:422,-1.19,1.76,1.80,1.35,0.72,-2.48,
17:41:53:436,-1.19,1.76,1.80,1.48,0.69,-2.41,
17:41:53:437,-1.82,0.93,2.35,1.48,0.69,-2.41,
17:41:53:437,-2.73,0.72,2.56,1.48,0.69,-2.41,
17:41:53:437,-2.73,0.72,2.56,1.65,0.66,-2.37,
17:41:53:438,-3.44,0.82,2.52,1.65,0.66,-2.37,
17:41:53:438,-3.44,0.82,2.52,1.81,0.63,-2.33,
17:41:53:442,-4.07,1.13,2.38,1.81,0.63,-2.33,
17:41:53:443,-4.07,1.13,2.38,1.92,0.64,-2.30,
17:41:53:446,-4.51,1.33,2.46,1.92,0.64,-2.30,
17:41:53:447,-4.51,1.33,2.46,2.00,0.64,-2.25,
17:41:53:451,-4.51,1.33,2.46,2.08,0.61,-2.19,
17:41:53:455,-4.79,1.27,2.56,2.08,0.61,-2.19,
17:41:53:456,-4.86,1.02,2.65,2.08,0.61,-2.19,
17:41:53:457,-4.86,1.02,2.65,2.16,0.55,-2.14,
17:41:53:460,-4.83,0.68,2.61,2.16,0.55,-2.14,
17:41:53:461,-4.83,0.68,2.61,2.26,0.46,-2.09,
17:41:53:464,-4.80,0.33,2.40,2.26,0.46,-2.09,
17:41:53:465,-4.80,0.33,2.40,2.37,0.33,-2.06,
17:41:53:469,-4.80,0.33,2.40,2.47,0.18,-2.04,
17:41:53:470,-4.84,-0.01,2.15,2.47,0.18,-2.04,
17:41:53:474,-4.93,-0.34,1.91,2.47,0.18,-2.04,
17:41:53:475,-4.93,-0.34,1.91,2.55,0.00,-2.03,
17:41:53:479,-5.05,-0.63,1.64,2.55,0.00,-2.03,
17:41:53:480,-5.05,-0.63,1.64,2.61,-0.18,-2.03,
17:41:53:484,-5.21,-0.90,1.39,2.61,-0.18,-2.03,
17:41:53:485,-5.21,-0.90,1.39,2.66,-0.35,-2.04,
17:41:53:489,-5.37,-1.14,1.18,2.66,-0.35,-2.04,
17:41:53:490,-5.37,-1.14,1.18,2.69,-0.50,-2.05,
17:41:53:494,-5.37,-1.14,1.18,2.73,-0.64,-2.07,
17:41:53:495,-5.38,-1.38,1.04,2.73,-0.64,-2.07,
17:41:53:499,-5.28,-1.66,0.93,2.73,-0.64,-2.07,
17:41:53:499,-5.28,-1.66,0.93,2.75,-0.75,-2.09,
17:41:53:504,-5.16,-1.90,0.93,2.75,-0.75,-2.09,
17:41:53:504,-5.16,-1.90,0.93,2.78,-0.85,-2.13,
17:41:53:509,-5.16,-1.90,0.93,2.81,-0.94,-2.17,
17:41:53:509,-5.03,-2.09,0.90,2.81,-0.94,-2.17,
17:41:53:513,-5.00,-2.25,0.91,2.81,-0.94,-2.17,
17:41:53:514,-5.00,-2.25,0.91,2.84,-1.01,-2.22,
17:41:53:518,-5.13,-2.42,0.82,2.84,-1.01,-2.22,
17:41:53:519,-5.13,-2.42,0.82,2.88,-1.07,-2.27,
17:41:53:523,-5.13,-2.42,0.82,2.92,-1.13,-2.32,
17:41:53:524,-5.25,-2.62,0.75,2.92,-1.13,-2.32,
17:41:53:528,-5.25,-2.62,0.75,2.96,-1.17,-2.36,
17:41:53:529,-5.44,-2.97,0.65,2.96,-1.17,-2.36,
17:41:53:533,-5.44,-2.97,0.65,3.01,-1.23,-2.38,
17:41:53:533,-5.66,-3.37,0.53,3.01,-1.23,-2.38,
17:41:53:537,-5.89,-3.78,0.30,3.01,-1.23,-2.38,
17:41:53:538,-5.89,-3.78,0.30,3.05,-1.28,-2.39,
17:41:53:542,-5.89,-3.78,0.30,3.10,-1.33,-2.38,
17:41:53:543,-6.09,-4.16,0.02,3.10,-1.33,-2.38,
17:41:53:547,-6.09,-4.16,0.02,3.13,-1.37,-2.36,
17:41:53:548,-6.07,-4.43,-0.23,3.13,-1.37,-2.36,
17:41:53:552,-6.07,-4.43,-0.23,3.15,-1.41,-2.34,
17:41:53:553,-5.89,-4.75,-0.41,3.15,-1.41,-2.34,
17:41:53:558,-5.89,-4.75,-0.41,3.17,-1.45,-2.32,
17:41:53:558,-5.61,-5.08,-0.58,3.17,-1.45,-2.32,
17:41:53:562,-5.61,-5.08,-0.58,3.18,-1.50,-2.30,
17:41:53:562,-5.41,-5.41,-0.76,3.18,-1.50,-2.30,
17:41:53:569,-5.20,-5.69,-0.96,3.18,-1.50,-2.30,
17:41:53:570,-5.20,-5.69,-0.96,3.18,-1.55,-2.28,
17:41:53:572,-4.85,-5.88,-1.09,3.18,-1.55,-2.28,
17:41:53:572,-4.85,-5.88,-1.09,3.18,-1.59,-2.26,
17:41:53:576,-4.53,-6.04,-1.22,3.18,-1.59,-2.26,
17:41:53:577,-4.53,-6.04,-1.22,3.17,-1.63,-2.24,
17:41:53:626,-4.53,-6.04,-1.22,3.16,-1.68,-2.20,
17:41:53:627,-4.12,-6.19,-1.42,3.16,-1.68,-2.20,
17:41:53:628,-3.54,-6.15,-1.14,3.16,-1.68,-2.20,
17:41:53:630,-3.54,-6.15,-1.14,3.12,-1.77,-2.15,
17:41:53:632,-3.54,-6.15,-1.14,3.06,-1.93,-2.07,
17:41:53:633,-2.64,-5.99,-1.30,3.06,-1.93,-2.07,
17:41:53:634,-2.64,-5.99,-1.30,2.98,-2.10,-2.00,
17:41:53:637,-1.44,-5.88,-2.16,2.98,-2.10,-2.00,
17:41:53:639,-1.44,-5.88,-2.16,2.88,-2.27,-1.94,
17:41:53:642,0.24,-5.64,-2.79,2.88,-2.27,-1.94,
17:41:53:643,0.24,-5.64,-2.79,2.75,-2.50,-1.91,
17:41:53:644,2.93,-5.30,-3.60,2.75,-2.50,-1.91,
17:41:53:654,6.63,-4.88,-4.60,2.75,-2.50,-1.91,
17:41:53:658,6.63,-4.88,-4.60,2.56,-2.82,-1.93,
17:41:53:659,10.87,-4.50,-5.46,2.56,-2.82,-1.93,
17:41:53:660,10.87,-4.50,-5.46,2.32,-3.23,-2.05,
17:41:53:660,10.87,-4.50,-5.46,2.03,-3.76,-2.27,
17:41:53:661,15.07,-4.27,-6.31,2.03,-3.76,-2.27,
17:41:53:661,18.70,-4.09,-7.22,2.03,-3.76,-2.27,
17:41:53:662,18.70,-4.09,-7.22,1.70,-4.38,-2.59,
17:41:53:663,18.70,-4.09,-7.22,1.35,-4.97,-2.96,
17:41:53:665,20.87,-3.80,-8.55,1.35,-4.97,-2.96,
17:41:53:666,22.02,-3.28,-8.52,1.35,-4.97,-2.96,
17:41:53:667,22.02,-3.28,-8.52,0.98,-5.38,-3.31,
17:41:53:668,21.54,-2.25,-7.47,0.98,-5.38,-3.31,
17:41:53:669,21.54,-2.25,-7.47,0.70,-5.34,-3.60,
17:41:53:670,21.54,-2.25,-7.47,0.47,-4.99,-3.79,
17:41:53:671,18.10,-0.23,-9.49,0.47,-4.99,-3.79,
17:41:53:672,18.10,-0.23,-9.49,0.17,-4.34,-3.80,
17:41:53:672,13.21,2.14,-12.71,0.17,-4.34,-3.80,
17:41:53:673,13.21,2.14,-12.71,-0.30,-3.59,-3.59,
17:41:53:674,8.43,3.71,-16.40,-0.30,-3.59,-3.59,
17:41:53:675,4.76,3.88,-18.92,-0.30,-3.59,-3.59,
17:41:53:676,4.76,3.88,-18.92,-0.99,-2.80,-3.15,
17:41:53:677,4.76,3.88,-18.92,-1.81,-1.89,-2.60,
17:41:53:677,3.25,2.63,-19.50,-1.81,-1.89,-2.60,
17:41:53:678,3.25,2.63,-19.50,-2.65,-0.89,-2.06,
17:41:53:678,3.42,0.30,-17.21,-2.65,-0.89,-2.06,
17:41:53:679,3.42,0.30,-17.21,-3.42,0.03,-1.66,
17:41:53:679,3.16,-1.62,-13.72,-3.42,0.03,-1.66,
17:41:53:680,3.16,-1.62,-13.72,-4.04,0.80,-1.34,
17:41:53:680,1.91,-2.90,-9.80,-4.04,0.80,-1.34,
17:41:53:683,0.03,-3.60,-5.90,-4.04,0.80,-1.34,
17:41:53:684,0.03,-3.60,-5.90,-4.55,1.34,-1.07,
17:41:53:688,-1.79,-4.37,-2.17,-4.55,1.34,-1.07,
17:41:53:689,-1.79,-4.37,-2.17,-4.92,1.64,-0.81,
17:41:53:697,-1.79,-4.37,-2.17,-5.15,1.82,-0.56,
17:41:53:697,-2.91,-5.31,1.50,-5.15,1.82,-0.56,
17:41:53:698,-2.91,-5.31,1.50,-5.24,1.84,-0.33,
17:41:53:699,-3.54,-6.26,5.27,-5.24,1.84,-0.33,
17:41:53:702,-3.54,-6.26,5.27,-5.18,1.73,-0.14,
17:41:53:703,-4.03,-7.01,8.97,-5.18,1.73,-0.14,
17:41:53:707,-4.48,-7.47,12.42,-5.18,1.73,-0.14,
17:41:53:709,-4.48,-7.47,12.42,-4.96,1.46,0.03,
17:41:53:712,-4.48,-7.47,12.42,-4.58,1.08,0.19,
17:41:53:713,-4.83,-7.61,15.42,-4.58,1.08,0.19,
17:41:53:717,-4.83,-7.61,15.42,-4.05,0.62,0.34,
17:41:53:718,-5.09,-7.68,17.74,-4.05,0.62,0.34,
17:41:53:722,-5.06,-7.63,19.30,-4.05,0.62,0.34,
17:41:53:723,-5.06,-7.63,19.30,-3.41,0.11,0.47,
17:41:53:727,-5.06,-7.63,19.30,-2.68,-0.43,0.58,
17:41:53:727,-4.81,-7.65,19.94,-2.68,-0.43,0.58,
17:41:53:733,-4.53,-7.94,19.31,-2.68,-0.43,0.58,
17:41:53:734,-4.53,-7.94,19.31,-1.91,-0.96,0.67,
17:41:53:737,-4.48,-8.38,17.49,-1.91,-0.96,0.67,
17:41:53:738,-4.48,-8.38,17.49,-1.15,-1.44,0.73,
17:41:53:741,-4.48,-8.38,17.49,-0.49,-1.83,0.79,
17:41:53:742,-5.00,-8.56,14.88,-0.49,-1.83,0.79,
17:41:53:746,-5.00,-8.56,14.88,0.04,-2.12,0.84,
17:41:53:759,-5.49,-8.76,11.29,0.04,-2.12,0.84,
17:41:53:761,-5.49,-8.76,11.29,0.38,-2.31,0.92,
17:41:53:761,-5.59,-9.33,7.68,0.38,-2.31,0.92,
17:41:53:763,-5.59,-9.33,7.68,0.53,-2.42,1.01,
17:41:53:764,-5.34,-10.30,4.42,0.53,-2.42,1.01,
17:41:53:765,-5.34,-10.30,4.42,0.53,-2.45,1.11,
17:41:53:766,-4.85,-12.07,1.41,0.53,-2.45,1.11,
17:41:53:766,-4.85,-12.07,1.41,0.37,-2.42,1.19,
17:41:53:767,-3.86,-12.71,-1.71,0.37,-2.42,1.19,
17:41:53:771,-3.86,-12.71,-1.71,0.10,-2.26,1.23,
17:41:53:771,-3.03,-12.74,-2.78,0.10,-2.26,1.23,
17:41:53:779,-3.03,-12.74,-2.78,-0.22,-1.99,1.21,
17:41:53:779,-2.40,-12.63,-3.36,-0.22,-1.99,1.21,
17:41:53:782,-2.21,-12.66,-3.27,-0.22,-1.99,1.21,
17:41:53:784,-2.21,-12.66,-3.27,-0.52,-1.66,1.15,
17:41:53:786,-2.21,-12.66,-3.27,-0.76,-1.36,1.09,
17:41:53:787,-2.72,-12.80,-2.75,-0.76,-1.36,1.09,
17:41:53:791,-3.22,-12.77,-2.66,-0.76,-1.36,1.09,
17:41:53:792,-3.22,-12.77,-2.66,-0.93,-1.18,1.08,
17:41:53:795,-3.22,-12.77,-2.66,-1.08,-1.13,1.14,
17:41:53:796,-3.70,-12.47,-3.48,-1.08,-1.13,1.14,
17:41:53:801,-3.97,-12.31,-5.32,-1.08,-1.13,1.14,
17:41:53:802,-3.97,-12.31,-5.32,-1.22,-1.23,1.28,
17:41:53:805,-3.97,-12.31,-5.32,-1.40,-1.45,1.48,
17:41:53:806,-4.01,-11.55,-6.47,-1.40,-1.45,1.48,
17:41:53:809,-3.94,-10.37,-6.59,-1.40,-1.45,1.48,
17:41:53:810,-3.94,-10.37,-6.59,-1.56,-1.67,1.74,
17:41:53:816,-3.94,-10.37,-6.59,-1.64,-1.88,2.10,
17:41:53:816,-2.72,-8.22,-7.08,-1.64,-1.88,2.10,
17:41:53:820,-0.18,-5.49,-8.17,-1.64,-1.88,2.10,
17:41:53:820,-0.18,-5.49,-8.17,-1.63,-2.09,2.53,
17:41:53:854,-0.18,-5.49,-8.17,-1.55,-2.29,2.99,
17:41:53:855,3.57,-2.79,-10.41,-1.55,-2.29,2.99,
17:41:53:856,8.57,-0.25,-13.65,-1.55,-2.29,2.99,
17:41:53:856,8.57,-0.25,-13.65,-1.49,-2.52,3.38,
17:41:53:857,14.65,1.99,-17.71,-1.49,-2.52,3.38,
17:41:53:857,14.65,1.99,-17.71,-1.53,-2.77,3.63,
17:41:53:858,14.65,1.99,-17.71,-1.70,-3.02,3.68,
17:41:53:858,20.89,4.30,-21.71,-1.70,-3.02,3.68,
17:41:53:859,20.89,4.30,-21.71,-1.97,-3.17,3.52,
17:41:53:860,26.30,6.78,-25.51,-1.97,-3.17,3.52,
17:41:53:861,29.23,9.54,-28.67,-1.97,-3.17,3.52,
17:41:53:861,29.23,9.54,-28.67,-2.30,-3.18,3.21,
17:41:53:862,29.77,12.31,-31.48,-2.30,-3.18,3.21,
17:41:53:863,29.77,12.31,-31.48,-2.69,-3.05,2.85,
17:41:53:863,29.40,14.80,-32.77,-2.69,-3.05,2.85,
17:41:53:865,29.40,14.80,-32.77,-3.14,-2.78,2.52,
17:41:53:866,29.40,14.80,-32.77,-3.64,-2.44,2.22,
17:41:53:867,28.59,16.73,-32.15,-3.64,-2.44,2.22,
17:41:53:868,28.59,16.73,-32.15,-4.13,-2.11,1.91,
17:41:53:869,27.35,18.07,-29.94,-4.13,-2.11,1.91,
17:41:53:872,27.35,18.07,-29.94,-4.55,-1.80,1.57,
17:41:53:873,26.04,18.33,-26.71,-4.55,-1.80,1.57,
17:41:53:877,24.71,17.27,-21.95,-4.55,-1.80,1.57,
17:41:53:878,24.71,17.27,-21.95,-4.89,-1.56,1.18,
17:41:53:882,22.47,15.73,-16.83,-4.89,-1.56,1.18,
17:41:53:883,22.47,15.73,-16.83,-5.14,-1.47,0.71,
17:41:53:887,22.47,15.73,-16.83,-5.27,-1.49,0.21,
17:41:53:888,19.39,14.31,-11.60,-5.27,-1.49,0.21,
17:41:53:892,19.39,14.31,-11.60,-5.27,-1.60,-0.29,
17:41:53:892,15.93,12.71,-6.63,-5.27,-1.60,-0.29,
17:41:53:896,12.12,11.04,-2.15,-5.27,-1.60,-0.29,
17:41:53:898,12.12,11.04,-2.15,-5.17,-1.74,-0.76,
17:41:53:901,12.12,11.04,-2.15,-4.96,-1.89,-1.19,
17:41:53:902,8.21,9.26,2.14,-4.96,-1.89,-1.19,
17:41:53:906,8.21,9.26,2.14,-4.67,-2.03,-1.55,
17:41:53:907,4.24,7.48,5.59,-4.67,-2.03,-1.55,
17:41:53:911,4.24,7.48,5.59,-4.32,-2.13,-1.85,
17:41:53:912,0.39,5.96,8.36,-4.32,-2.13,-1.85,
17:41:53:916,-3.39,4.72,10.40,-4.32,-2.13,-1.85,
17:41:53:917,-3.39,4.72,10.40,-3.94,-2.19,-2.07,
17:41:53:921,-3.39,4.72,10.40,-3.55,-2.23,-2.21,
17:41:53:921,-6.81,3.64,11.84,-3.55,-2.23,-2.21,
17:41:53:927,-9.17,2.56,12.69,-3.55,-2.23,-2.21,
17:41:53:929,-9.17,2.56,12.69,-3.19,-2.27,-2.25,
17:41:53:932,-9.17,2.56,12.69,-2.86,-2.29,-2.23,
17:41:53:933,-11.07,1.46,12.72,-2.86,-2.29,-2.23,
17:41:53:936,-11.07,1.46,12.72,-2.58,-2.23,-2.18,
17:41:53:937,-13.40,0.63,12.74,-2.58,-2.23,-2.18,
17:41:53:941,-15.07,0.04,12.42,-2.58,-2.23,-2.18,
17:41:53:943,-15.07,0.04,12.42,-2.34,-2.14,-2.06,
17:41:53:946,-15.07,0.04,12.42,-2.17,-2.02,-1.87,
17:41:53:947,-16.09,-0.56,11.92,-2.17,-2.02,-1.87,
17:41:53:951,-16.67,-1.14,11.41,-2.17,-2.02,-1.87,
17:41:53:951,-16.67,-1.14,11.41,-2.05,-1.86,-1.66,
17:41:53:955,-16.83,-1.72,10.83,-2.05,-1.86,-1.66,
17:41:53:956,-16.83,-1.72,10.83,-1.97,-1.67,-1.44,
17:41:53:962,-16.83,-1.72,10.83,-1.94,-1.46,-1.22,
17:41:53:963,-16.68,-2.31,10.35,-1.94,-1.46,-1.22,
17:41:53:965,-16.20,-2.96,10.05,-1.94,-1.46,-1.22,
17:41:53:966,-16.20,-2.96,10.05,-1.94,-1.23,-1.01,
17:41:53:970,-16.20,-2.96,10.05,-1.97,-0.98,-0.83,
17:41:53:970,-15.78,-3.60,10.00,-1.97,-0.98,-0.83,
17:41:53:974,-15.78,-3.60,10.00,-2.01,-0.69,-0.68,
17:41:53:976,-15.55,-4.21,10.36,-2.01,-0.69,-0.68,
17:41:53:979,-15.55,-4.21,10.36,-2.03,-0.36,-0.54,
17:41:53:980,-15.52,-4.76,11.15,-2.03,-0.36,-0.54,
17:41:53:984,-15.52,-4.76,11.15,-2.03,0.00,-0.41,
17:41:53:985,-15.57,-5.21,12.25,-2.03,0.00,-0.41,
17:41:53:989,-15.57,-5.21,12.25,-1.97,0.40,-0.27,
17:41:53:989,-15.60,-5.52,13.46,-1.97,0.40,-0.27,
17:41:53:994,-14.82,-5.90,14.48,-1.97,0.40,-0.27,
17:41:53:994,-14.82,-5.90,14.48,-1.87,0.77,-0.12,
17:41:53:999,-14.22,-6.54,14.83,-1.87,0.77,-0.12,
17:41:53:999,-14.22,-6.54,14.83,-1.73,1.07,-0.01,
17:41:54:003,-14.22,-6.54,14.83,-1.62,1.19,0.09,
17:41:54:004,-13.95,-7.90,12.35,-1.62,1.19,0.09,
17:41:54:009,-13.95,-7.90,12.35,-1.60,1.20,0.19,
17:41:54:010,-11.66,-7.81,13.20,-1.60,1.20,0.19,
17:41:54:013,-11.66,-7.81,13.20,-1.55,1.26,0.19,
17:41:54:014,-9.99,-7.85,13.90,-1.55,1.26,0.19,
17:41:54:018,-8.66,-7.43,14.00,-1.55,1.26,0.19,
17:41:54:019,-8.66,-7.43,14.00,-1.46,1.32,0.05,
17:41:54:023,-7.86,-7.09,13.44,-1.46,1.32,0.05,
17:41:54:024,-7.86,-7.09,13.44,-1.34,1.32,-0.15,
17:41:54:028,-7.86,-7.09,13.44,-1.20,1.25,-0.37,
17:41:54:029,-7.59,-7.10,12.60,-1.20,1.25,-0.37,
17:41:54:033,-7.59,-7.10,12.60,-1.11,1.16,-0.59,
17:41:54:034,-7.44,-7.36,11.98,-1.11,1.16,-0.59,
17:41:54:038,-7.44,-7.36,11.98,-1.05,1.06,-0.82,
17:41:54:039,-7.57,-7.45,11.38,-1.05,1.06,-0.82,
17:41:54:043,-7.57,-7.45,11.38,-1.02,0.97,-1.04,
17:41:54:043,-8.15,-7.30,11.02,-1.02,0.97,-1.04,
17:41:54:048,-9.10,-7.01,11.04,-1.02,0.97,-1.04,
17:41:54:049,-9.10,-7.01,11.04,-1.00,0.88,-1.25,
17:41:54:052,-9.10,-7.01,11.04,-0.96,0.82,-1.42,
17:41:54:053,-10.20,-6.64,11.47,-0.96,0.82,-1.42,
17:41:54:057,-10.20,-6.64,11.47,-0.90,0.75,-1.55,
17:41:54:059,-11.31,-6.20,11.99,-0.90,0.75,-1.55,
17:41:54:062,-12.27,-5.83,12.59,-0.90,0.75,-1.55,
17:41:54:063,-12.27,-5.83,12.59,-0.81,0.69,-1.64,
17:41:54:117,-12.27,-5.83,12.59,-0.70,0.61,-1.69,
17:41:54:118,-13.27,-5.50,12.82,-0.70,0.61,-1.69,
17:41:54:119,-14.17,-5.37,12.87,-0.70,0.61,-1.69,
17:41:54:121,-14.17,-5.37,12.87,-0.57,0.54,-1.69,
17:41:54:123,-14.69,-5.51,12.88,-0.57,0.54,-1.69,
17:41:54:124,-14.69,-5.51,12.88,-0.44,0.49,-1.66,
17:41:54:125,-15.56,-5.26,12.56,-0.44,0.49,-1.66,
17:41:54:126,-15.56,-5.26,12.56,-0.30,0.48,-1.60,
17:41:54:127,-15.56,-5.26,12.56,-0.17,0.51,-1.50,
17:41:54:129,-16.08,-5.09,12.66,-0.17,0.51,-1.50,
17:41:54:130,-16.08,-5.09,12.66,-0.04,0.55,-1.36,
17:41:54:131,-16.27,-5.04,12.55,-0.04,0.55,-1.36,
17:41:54:132,-16.32,-4.81,12.38,-0.04,0.55,-1.36,
17:41:54:133,-16.32,-4.81,12.38,0.08,0.64,-1.23,
17:41:54:134,-16.32,-4.81,12.38,0.20,0.79,-1.10,
17:41:54:135,-16.24,-4.52,11.95,0.20,0.79,-1.10,
17:41:54:137,-16.24,-4.52,11.95,0.31,0.98,-0.95,
17:41:54:137,-15.62,-4.29,11.40,0.31,0.98,-0.95,
17:41:54:138,-15.62,-4.29,11.40,0.40,1.23,-0.81,
17:41:54:138,-14.92,-3.71,10.37,0.40,1.23,-0.81,
17:41:54:139,-14.92,-3.71,10.37,0.45,1.50,-0.68,
17:41:54:140,-13.75,-3.20,9.37,0.45,1.50,-0.68,
17:41:54:140,-13.75,-3.20,9.37,0.46,1.77,-0.57,
17:41:54:141,-12.24,-2.83,8.14,0.46,1.77,-0.57,
17:41:54:141,-12.24,-2.83,8.14,0.43,2.06,-0.50,
17:41:54:142,-10.90,-2.38,6.76,0.43,2.06,-0.50,
17:41:54:142,-10.90,-2.38,6.76,0.36,2.36,-0.48,
17:41:54:143,-10.00,-1.61,5.31,0.36,2.36,-0.48,
17:41:54:143,-10.00,-1.61,5.31,0.24,2.66,-0.47,
17:41:54:144,-9.41,-0.42,3.97,0.24,2.66,-0.47,
17:41:54:144,-9.41,-0.42,3.97,0.08,2.96,-0.47,
17:41:54:145,-8.90,0.99,2.86,0.08,2.96,-0.47,
17:41:54:145,-8.08,2.67,2.21,0.08,2.96,-0.47,
17:41:54:146,-8.08,2.67,2.21,-0.12,3.23,-0.47,
17:41:54:149,-8.08,2.67,2.21,-0.29,3.45,-0.48,
17:41:54:150,-6.81,4.69,2.37,-0.29,3.45,-0.48,
17:41:54:154,-6.81,4.69,2.37,-0.41,3.59,-0.50,
17:41:54:154,-5.27,7.39,3.01,-0.41,3.59,-0.50,
17:41:54:159,-5.27,7.39,3.01,-0.44,3.63,-0.53,
17:41:54:159,-4.39,11.51,3.50,-0.44,3.63,-0.53,
17:41:54:163,-2.34,16.48,4.89,-0.44,3.63,-0.53,
17:41:54:164,-2.34,16.48,4.89,-0.38,3.57,-0.51,
17:41:54:168,2.48,21.50,5.90,-0.38,3.57,-0.51,
17:41:54:169,2.48,21.50,5.90,-0.19,3.44,-0.45,
17:41:54:173,9.61,25.97,6.39,-0.19,3.44,-0.45,
17:41:54:174,9.61,25.97,6.39,0.14,3.26,-0.45,
17:41:54:180,9.61,25.97,6.39,0.57,3.00,-0.61,
17:41:54:180,17.91,29.47,5.70,0.57,3.00,-0.61,
17:41:54:183,26.51,31.93,4.41,0.57,3.00,-0.61,
17:41:54:184,26.51,31.93,4.41,1.04,2.66,-0.98,
17:41:54:189,32.68,33.44,2.80,1.04,2.66,-0.98,
17:41:54:191,32.68,33.44,2.80,1.52,2.29,-1.56,
17:41:54:193,32.68,33.44,2.80,2.03,1.89,-2.28,
17:41:54:195,32.66,33.62,0.91,2.03,1.89,-2.28,
17:41:54:198,32.66,33.62,0.91,2.56,1.44,-3.02,
17:41:54:199,32.67,33.54,-1.98,2.56,1.44,-3.02,
17:41:54:203,32.67,33.54,-1.98,3.06,0.95,-3.71,
17:41:54:204,32.71,33.44,-6.37,3.06,0.95,-3.71,
17:41:54:208,32.71,33.44,-6.37,3.45,0.55,-4.34,
17:41:54:209,32.78,33.34,-11.58,3.45,0.55,-4.34,
17:41:54:213,32.88,30.99,-17.21,3.45,0.55,-4.34,
17:41:54:214,32.88,30.99,-17.21,3.65,0.24,-4.94,
17:41:54:217,33.00,26.52,-22.74,3.65,0.24,-4.94,
17:41:54:219,33.00,26.52,-22.74,3.59,0.00,-5.45,
17:41:54:223,33.13,22.94,-27.18,3.59,0.00,-5.45,
17:41:54:224,33.13,22.94,-27.18,3.28,-0.13,-5.82,
17:41:54:228,33.13,22.94,-27.18,2.75,-0.13,-6.04,
17:41:54:229,33.28,19.91,-30.04,2.75,-0.13,-6.04,
17:41:54:232,33.28,19.91,-30.04,2.03,-0.02,-6.13,
17:41:54:233,32.40,16.38,-31.32,2.03,-0.02,-6.13,
17:41:54:237,32.40,16.38,-31.32,1.17,0.19,-6.10,
17:41:54:238,29.68,11.89,-31.40,1.17,0.19,-6.10,
17:41:54:243,26.72,7.07,-30.20,1.17,0.19,-6.10,
17:41:54:244,26.72,7.07,-30.20,0.23,0.56,-5.98,
17:41:54:247,26.72,7.07,-30.20,-0.70,1.15,-5.79,
17:41:54:248,23.60,2.28,-27.33,-0.70,1.15,-5.79,
17:41:54:252,20.26,-1.76,-22.32,-0.70,1.15,-5.79,
17:41:54:253,20.26,-1.76,-22.32,-1.56,1.88,-5.55,
17:41:54:258,16.67,-5.13,-15.68,-1.56,1.88,-5.55,
17:41:54:259,16.67,-5.13,-15.68,-2.24,2.64,-5.31,
17:41:54:262,16.67,-5.13,-15.68,-2.70,3.29,-5.06,
17:41:54:263,13.04,-8.24,-8.71,-2.70,3.29,-5.06,
17:41:54:267,13.04,-8.24,-8.71,-2.92,3.75,-4.81,
17:41:54:269,9.57,-11.19,-1.82,-2.92,3.75,-4.81,
17:41:54:271,6.51,-13.85,4.79,-2.92,3.75,-4.81,
17:41:54:272,6.51,-13.85,4.79,-2.90,4.02,-4.57,
17:41:54:276,3.86,-16.01,10.59,-2.90,4.02,-4.57,
17:41:54:277,3.86,-16.01,10.59,-2.64,4.09,-4.34,
17:41:54:281,1.45,-17.54,15.01,-2.64,4.09,-4.34,
17:41:54:282,1.45,-17.54,15.01,-2.18,3.99,-4.10,
17:41:54:286,-0.54,-18.80,17.83,-2.18,3.99,-4.10,
17:41:54:287,-0.54,-18.80,17.83,-1.57,3.76,-3.84,
17:41:54:290,-2.14,-19.83,18.90,-1.57,3.76,-3.84,
17:41:54:291,-2.14,-19.83,18.90,-0.88,3.45,-3.58,
17:41:54:296,-3.39,-20.92,18.54,-0.88,3.45,-3.58,
17:41:54:297,-3.39,-20.92,18.54,-0.18,3.13,-3.32,
17:41:54:301,-3.39,-20.92,18.54,0.47,2.85,-3.07,
17:41:54:302,-4.53,-21.90,17.31,0.47,2.85,-3.07,
17:41:54:306,-5.83,-22.70,15.49,0.47,2.85,-3.07,
17:41:54:307,-5.83,-22.70,15.49,1.05,2.63,-2.82,
17:41:54:351,-7.66,-22.82,13.19,1.05,2.63,-2.82,
17:41:54:351,-7.66,-22.82,13.19,1.55,2.52,-2.55,
17:41:54:352,-7.66,-22.82,13.19,1.95,2.52,-2.23,
17:41:54:353,-9.35,-23.31,10.33,1.95,2.52,-2.23,
17:41:54:354,-10.60,-24.43,7.41,1.95,2.52,-2.23,
17:41:54:356,-10.60,-24.43,7.41,2.23,2.61,-1.87,
17:41:54:357,-10.60,-24.43,7.41,2.37,2.75,-1.47,
17:41:54:359,-12.32,-25.00,5.19,2.37,2.75,-1.47,
17:41:54:360,-12.32,-25.00,5.19,2.42,2.89,-1.03,
17:41:54:360,-13.83,-25.17,4.43,2.42,2.89,-1.03,
17:41:54:362,-13.83,-25.17,4.43,2.45,3.01,-0.57,
17:41:54:363,-14.38,-26.07,4.09,2.45,3.01,-0.57,
17:41:54:364,-14.38,-26.07,4.09,2.44,3.05,-0.11,
17:41:54:365,-15.48,-27.55,3.25,2.44,3.05,-0.11,
17:41:54:366,-16.16,-28.93,3.01,2.44,3.05,-0.11,
17:41:54:368,-16.16,-28.93,3.01,2.37,2.98,0.36,
17:41:54:370,-16.16,-28.93,3.01,2.24,2.82,0.82,
17:41:54:371,-16.18,-30.00,2.66,2.24,2.82,0.82,
17:41:54:372,-16.18,-30.00,2.66,2.10,2.63,1.24,
17:41:54:373,-15.59,-30.95,2.67,2.10,2.63,1.24,
17:41:54:374,-15.59,-30.95,2.67,1.96,2.38,1.60,
17:41:54:375,-15.23,-30.94,2.46,1.96,2.38,1.60,
17:41:54:377,-15.23,-30.94,2.46,1.83,2.09,1.91,
17:41:54:379,-15.68,-30.28,2.75,1.83,2.09,1.91,
17:41:54:380,-15.68,-30.28,2.75,1.71,1.77,2.20,
17:41:54:381,-16.44,-29.80,3.32,1.71,1.77,2.20,
17:41:54:382,-17.32,-29.42,3.91,1.71,1.77,2.20,
17:41:54:382,-17.32,-29.42,3.91,1.61,1.46,2.50,
17:41:54:383,-18.23,-29.07,4.35,1.61,1.46,2.50,
17:41:54:383,-18.23,-29.07,4.35,1.55,1.16,2.83,
17:41:54:384,-18.23,-29.07,4.35,1.53,0.92,3.20,
17:41:54:384,-18.86,-28.76,5.12,1.53,0.92,3.20,
17:41:54:387,-18.86,-28.76,5.12,1.55,0.70,3.59,
17:41:54:387,-19.08,-28.44,5.93,1.55,0.70,3.59,
17:41:54:415,-19.08,-28.44,5.93,1.61,0.49,4.00,
17:41:54:417,-18.88,-28.24,6.56,1.61,0.49,4.00,
17:41:54:422,-18.88,-28.24,6.56,1.71,0.29,4.40,
17:41:54:436,-18.07,-28.13,7.03,1.71,0.29,4.40,
17:41:54:438,-18.07,-28.13,7.03,1.84,0.11,4.79,
17:41:54:439,-16.94,-27.95,7.40,1.84,0.11,4.79,
17:41:54:440,-16.94,-27.95,7.40,2.00,-0.02,5.16,
17:41:54:441,-15.57,-27.84,7.63,2.00,-0.02,5.16,
17:41:54:442,-14.18,-27.67,7.70,2.00,-0.02,5.16,
17:41:54:443,-14.18,-27.67,7.70,2.20,-0.06,5.51,
17:41:54:443,-12.75,-27.56,7.57,2.20,-0.06,5.51,
17:41:54:445,-12.75,-27.56,7.57,2.43,-0.00,5.84,
17:41:54:447,-11.08,-27.58,7.34,2.43,-0.00,5.84,
17:41:54:450,-11.08,-27.58,7.34,2.66,0.13,6.16,
17:41:54:451,-11.08,-27.58,7.34,2.90,0.29,6.46,
17:41:54:452,-8.71,-27.91,6.82,2.90,0.29,6.46,
17:41:54:453,-5.19,-28.52,5.80,2.90,0.29,6.46,
17:41:54:453,-5.19,-28.52,5.80,3.12,0.38,6.73,
17:41:54:454,-5.19,-28.52,5.80,3.32,0.33,6.94,
17:41:54:455,-0.83,-28.87,4.31,3.32,0.33,6.94,
17:41:54:456,-0.83,-28.87,4.31,3.50,0.07,7.03,
17:41:54:457,2.86,-28.60,2.04,3.50,0.07,7.03,
17:41:54:463,2.86,-28.60,2.04,3.61,-0.36,7.01,
17:41:54:464,5.21,-27.68,-0.64,3.61,-0.36,7.01,
17:41:54:465,5.21,-27.68,-0.64,3.65,-0.89,6.91,
17:41:54:466,5.78,-25.75,-3.27,3.65,-0.89,6.91,
17:41:54:466,5.78,-25.75,-3.27,3.61,-1.37,6.82,
17:41:54:467,6.58,-24.34,-5.57,3.61,-1.37,6.82,
17:41:54:467,6.58,-24.34,-5.57,3.48,-1.84,6.77,
17:41:54:468,8.35,-24.36,-10.52,3.48,-1.84,6.77,
17:41:54:468,10.05,-23.77,-14.97,3.48,-1.84,6.77,
17:41:54:469,10.05,-23.77,-14.97,3.16,-2.29,6.75,
17:41:54:470,10.05,-23.77,-14.97,2.64,-2.65,6.75,
17:41:54:471,12.35,-22.49,-19.49,2.64,-2.65,6.75,
17:41:54:474,14.83,-20.40,-23.86,2.64,-2.65,6.75,
17:41:54:475,14.83,-20.40,-23.86,1.96,-2.85,6.70,
17:41:54:480,16.90,-18.44,-27.51,1.96,-2.85,6.70,
17:41:54:481,16.90,-18.44,-27.51,1.14,-2.81,6.61,
17:41:54:484,16.90,-18.44,-27.51,0.23,-2.53,6.52,
17:41:54:485,18.00,-16.60,-29.10,0.23,-2.53,6.52,
17:41:54:489,18.00,-16.60,-29.10,-0.67,-2.04,6.51,
17:41:54:490,17.78,-14.37,-29.02,-0.67,-2.04,6.51,
17:41:54:493,17.78,-14.37,-29.02,-1.49,-1.37,6.68,
17:41:54:494,16.54,-11.55,-28.27,-1.49,-1.37,6.68,
17:41:54:501,16.54,-11.55,-28.27,-2.18,-0.55,7.07,
17:41:54:502,15.96,-8.69,-27.22,-2.18,-0.55,7.07,
17:41:54:503,18.68,-6.22,-26.28,-2.18,-0.55,7.07,
17:41:54:504,18.68,-6.22,-26.28,-2.72,0.31,7.60,
17:41:54:509,18.68,-6.22,-26.28,-3.15,0.99,8.12,
17:41:54:510,24.86,-3.57,-24.26,-3.15,0.99,8.12,
17:41:54:513,24.86,-3.57,-24.26,-3.44,1.26,8.48,
17:41:54:514,31.58,0.30,-21.45,-3.44,1.26,8.48,
17:41:54:518,31.58,0.30,-21.45,-3.53,1.10,8.63,
17:41:54:519,31.76,3.06,-18.81,-3.53,1.10,8.63,
17:41:54:523,31.76,3.06,-18.81,-3.42,0.46,8.44,
17:41:54:523,31.72,4.86,-16.55,-3.42,0.46,8.44,
17:41:54:527,31.72,4.86,-16.55,-3.11,-0.49,7.76,
17:41:54:528,31.71,7.80,-14.81,-3.11,-0.49,7.76,
17:41:54:532,31.71,7.80,-14.81,-2.61,-1.43,6.64,
17:41:54:533,31.73,12.26,-16.07,-2.61,-1.43,6.64,
17:41:54:537,31.73,12.26,-16.07,-2.08,-2.09,5.36,
17:41:54:538,31.76,16.87,-19.22,-2.08,-2.09,5.36,
17:41:54:542,31.76,16.87,-19.22,-1.72,-2.39,4.14,
17:41:54:543,31.81,20.34,-21.48,-1.72,-2.39,4.14,
17:41:54:547,31.81,20.34,-21.48,-1.51,-2.32,3.06,
17:41:54:547,31.85,21.65,-22.13,-1.51,-2.32,3.06,
17:41:54:573,31.85,21.65,-22.13,-1.43,-2.01,2.12,
17:41:54:574,31.88,21.36,-21.19,-1.43,-2.01,2.12,
17:41:54:574,31.88,21.36,-21.19,-1.44,-1.61,1.36,
17:41:54:575,31.90,20.12,-18.41,-1.44,-1.61,1.36,
17:41:54:576,31.90,20.12,-18.41,-1.48,-1.29,0.80,
17:41:54:576,27.85,18.34,-14.75,-1.48,-1.29,0.80,
17:41:54:577,27.85,18.34,-14.75,-1.53,-1.13,0.45,
17:41:54:577,17.30,16.50,-10.52,-1.53,-1.13,0.45,
17:41:54:578,17.30,16.50,-10.52,-1.54,-1.06,0.32,
17:41:54:578,7.78,14.83,-6.36,-1.54,-1.06,0.32,
17:41:54:579,7.78,14.83,-6.36,-1.50,-1.01,0.40,
17:41:54:579,0.05,13.33,-2.78,-1.50,-1.01,0.40,
17:41:54:581,0.05,13.33,-2.78,-1.39,-0.93,0.65,
17:41:54:581,-5.36,11.93,-0.07,-1.39,-0.93,0.65,
17:41:54:586,-8.31,10.58,1.42,-1.39,-0.93,0.65,
17:41:54:586,-8.31,10.58,1.42,-1.26,-0.80,1.00,
17:41:54:592,-8.31,10.58,1.42,-1.14,-0.65,1.35,
17:41:54:593,-9.08,9.26,1.95,-1.14,-0.65,1.35,
17:41:54:596,-8.98,8.29,2.38,-1.14,-0.65,1.35,
17:41:54:596,-8.98,8.29,2.38,-1.07,-0.51,1.64,
17:41:54:600,-8.69,7.44,3.01,-1.07,-0.51,1.64,
17:41:54:600,-8.69,7.44,3.01,-1.04,-0.38,1.85,
17:41:54:613,-8.78,6.93,3.70,-1.04,-0.38,1.85,
17:41:54:614,-8.78,6.93,3.70,-1.03,-0.23,1.99,
17:41:54:616,-9.44,6.65,4.54,-1.03,-0.23,1.99,
17:41:54:617,-9.44,6.65,4.54,-1.04,-0.04,2.10,
17:41:54:617,-9.44,6.65,4.54,-1.04,0.22,2.20,
17:41:54:618,-10.17,6.21,5.73,-1.04,0.22,2.20,
17:41:54:620,-11.04,6.01,7.12,-1.04,0.22,2.20,
17:41:54:621,-11.04,6.01,7.12,-1.02,0.55,2.30,
17:41:54:625,-11.04,6.01,7.12,-0.98,0.93,2.41,
17:41:54:626,-12.07,6.05,8.43,-0.98,0.93,2.41,
17:41:54:630,-12.07,6.05,8.43,-0.92,1.30,2.52,
17:41:54:631,-12.77,5.79,9.71,-0.92,1.30,2.52,
17:41:54:634,-12.77,5.79,9.71,-0.83,1.65,2.63,
17:41:54:635,-13.64,5.69,10.55,-0.83,1.65,2.63,
17:41:54:639,-13.64,5.69,10.55,-0.73,1.96,2.74,
17:41:54:641,-14.78,5.74,10.37,-0.73,1.96,2.74,
17:41:54:645,-16.11,5.99,9.18,-0.73,1.96,2.74,
17:41:54:646,-16.11,5.99,9.18,-0.65,2.28,2.88,
17:41:54:649,-16.80,5.99,7.84,-0.65,2.28,2.88,
17:41:54:650,-16.80,5.99,7.84,-0.65,2.63,3.04,
17:41:54:654,-16.80,5.99,7.84,-0.71,2.99,3.19,
17:41:54:656,-16.24,5.64,7.26,-0.71,2.99,3.19,
17:41:54:658,-16.24,5.64,7.26,-0.80,3.30,3.28,
17:41:54:660,-15.20,5.45,7.59,-0.80,3.30,3.28,
17:41:54:663,-15.20,5.45,7.59,-0.88,3.45,3.28,
17:41:54:664,-14.17,5.62,8.84,-0.88,3.45,3.28,
17:41:54:669,-14.17,5.62,8.84,-0.90,3.40,3.20,
17:41:54:670,-13.33,6.05,10.62,-0.90,3.40,3.20,
17:41:54:675,-12.66,6.46,12.35,-0.90,3.40,3.20,
17:41:54:676,-12.66,6.46,12.35,-0.85,3.16,3.07,
17:41:54:678,-12.66,6.46,12.35,-0.70,2.78,2.88,
17:41:54:679,-11.84,6.76,13.66,-0.70,2.78,2.88,
17:41:54:683,-11.84,6.76,13.66,-0.48,2.37,2.65,
17:41:54:684,-11.13,6.76,14.45,-0.48,2.37,2.65,
17:41:54:688,-11.13,6.76,14.45,-0.22,2.05,2.40,
17:41:54:689,-9.07,6.90,15.02,-0.22,2.05,2.40,
17:41:54:693,-9.07,6.90,15.02,0.07,1.59,2.08,
17:41:54:694,-7.20,7.92,15.14,0.07,1.59,2.08,
17:41:54:698,-5.57,9.18,14.34,0.07,1.59,2.08,
17:41:54:699,-5.57,9.18,14.34,0.38,0.97,1.69,
17:41:54:704,-4.84,9.89,12.39,0.38,0.97,1.69,
17:41:54:705,-4.84,9.89,12.39,0.69,0.24,1.24,
17:41:54:708,-5.08,10.16,9.11,0.69,0.24,1.24,
17:41:54:709,-5.08,10.16,9.11,0.94,-0.48,0.76,
17:41:54:712,-6.05,10.54,5.36,0.94,-0.48,0.76,
17:41:54:713,-6.05,10.54,5.36,1.06,-1.05,0.31,
17:41:54:717,-7.36,11.68,2.10,1.06,-1.05,0.31,
17:41:54:718,-7.36,11.68,2.10,1.04,-1.37,-0.04,
17:41:54:723,-7.36,11.68,2.10,0.88,-1.39,-0.28,
17:41:54:724,-8.26,12.95,-0.20,0.88,-1.39,-0.28,
17:41:54:727,-9.07,13.83,-1.95,0.88,-1.39,-0.28,
17:41:54:729,-9.07,13.83,-1.95,0.64,-1.13,-0.43,
17:41:54:732,-9.07,13.83,-1.95,0.34,-0.72,-0.50,
17:41:54:733,-9.90,14.37,-3.30,0.34,-0.72,-0.50,
17:41:54:737,-10.42,14.73,-4.03,0.34,-0.72,-0.50,
17:41:54:739,-10.42,14.73,-4.03,-0.00,-0.24,-0.49,
17:41:54:742,-10.26,14.90,-3.99,-0.00,-0.24,-0.49,
17:41:54:744,-10.26,14.90,-3.99,-0.35,0.26,-0.43,
17:41:54:747,-10.26,14.90,-3.99,-0.67,0.72,-0.37,
17:41:54:749,-9.14,14.94,-3.34,-0.67,0.72,-0.37,
17:41:54:752,-9.14,14.94,-3.34,-0.96,1.06,-0.34,
17:41:54:753,-6.66,14.85,-2.49,-0.96,1.06,-0.34,
17:41:54:757,-3.56,14.86,-1.54,-0.96,1.06,-0.34,
17:41:54:758,-3.56,14.86,-1.54,-1.20,1.18,-0.40,
17:41:54:765,-0.05,14.90,-0.86,-1.20,1.18,-0.40,
17:41:54:767,-0.05,14.90,-0.86,-1.40,1.05,-0.58,
17:41:54:767,-0.05,14.90,-0.86,-1.56,0.74,-0.88,
17:41:54:768,3.24,14.87,-0.60,-1.56,0.74,-0.88,
17:41:54:772,5.53,14.80,-0.67,-1.56,0.74,-0.88,
17:41:54:774,5.53,14.80,-0.67,-1.68,0.37,-1.27,
17:41:54:776,5.53,14.80,-0.67,-1.77,0.02,-1.68,
17:41:54:777,6.84,14.96,-1.18,-1.77,0.02,-1.68,
17:41:54:781,6.84,14.96,-1.18,-1.85,-0.20,-2.06,
17:41:54:782,6.93,15.28,-1.69,-1.85,-0.20,-2.06,
17:41:54:786,6.93,15.28,-1.69,-1.91,-0.25,-2.35,
17:41:54:787,6.87,15.58,-1.70,-1.91,-0.25,-2.35,
17:41:54:791,6.87,15.58,-1.70,-1.92,-0.15,-2.53,
17:41:54:792,7.30,15.74,-1.33,-1.92,-0.15,-2.53,
17:41:54:845,7.30,15.74,-1.33,-1.86,0.07,-2.64,
17:41:54:846,7.86,15.88,-0.30,-1.86,0.07,-2.64,
17:41:54:846,7.86,15.88,-0.30,-1.71,0.31,-2.70,
17:41:54:847,9.48,16.09,1.05,-1.71,0.31,-2.70,
17:41:54:848,9.48,16.09,1.05,-1.48,0.48,-2.77,
17:41:54:849,12.28,16.01,2.62,-1.48,0.48,-2.77,
17:41:54:850,15.91,15.63,4.06,-1.48,0.48,-2.77,
17:41:54:850,15.91,15.63,4.06,-1.15,0.50,-2.89,
17:41:54:851,19.56,15.16,5.00,-1.15,0.50,-2.89,
17:41:54:851,19.56,15.16,5.00,-0.73,0.35,-3.10,
17:41:54:852,22.64,14.53,5.19,-0.73,0.35,-3.10,
17:41:54:853,22.64,14.53,5.19,-0.27,0.02,-3.39,
17:41:54:854,24.70,13.75,4.50,-0.27,0.02,-3.39,
17:41:54:854,24.70,13.75,4.50,0.22,-0.43,-3.75,
17:41:54:855,25.35,12.99,3.16,0.22,-0.43,-3.75,
17:41:54:856,25.35,12.99,3.16,0.68,-0.92,-4.12,
17:41:54:856,25.29,12.35,1.36,0.68,-0.92,-4.12,
17:41:54:857,25.29,12.35,1.36,1.11,-1.36,-4.44,
17:41:54:858,25.29,12.35,1.36,1.48,-1.68,-4.68,
17:41:54:860,25.32,11.56,-0.77,1.48,-1.68,-4.68,
17:41:54:861,25.81,10.52,-3.19,1.48,-1.68,-4.68,
17:41:54:863,25.81,10.52,-3.19,1.80,-1.84,-4.84,
17:41:54:863,25.81,10.52,-3.19,2.05,-1.87,-4.95,
17:41:54:864,26.85,9.07,-5.46,2.05,-1.87,-4.95,
17:41:54:865,26.85,9.07,-5.46,2.21,-1.79,-5.03,
17:41:54:865,28.29,7.18,-7.26,2.21,-1.79,-5.03,
17:41:54:866,28.29,7.18,-7.26,2.31,-1.62,-5.10,
17:41:54:867,29.87,4.69,-8.49,2.31,-1.62,-5.10,
17:41:54:867,31.23,1.85,-9.23,2.31,-1.62,-5.10,
17:41:54:868,31.23,1.85,-9.23,2.36,-1.40,-5.18,
17:41:54:868,31.23,1.85,-9.23,2.37,-1.10,-5.24,
17:41:54:869,29.90,0.64,-8.16,2.37,-1.10,-5.24,
17:41:54:873,29.90,0.64,-8.16,2.44,-0.63,-5.23,
17:41:54:873,29.85,-1.96,-7.87,2.44,-0.63,-5.23,
17:41:54:877,29.85,-1.96,-7.87,2.43,-0.20,-5.18,
17:41:54:878,31.74,-7.25,-10.67,2.43,-0.20,-5.18,
17:41:54:882,31.74,-7.25,-10.67,2.24,0.18,-5.21,
17:41:54:883,31.63,-10.87,-10.66,2.24,0.18,-5.21,
17:41:54:887,31.63,-10.87,-10.66,2.00,0.71,-5.29,
17:41:54:887,29.03,-11.36,-8.45,2.00,0.71,-5.29,
17:41:54:893,29.03,-11.36,-8.45,1.82,1.36,-5.34,
17:41:54:893,26.26,-11.78,-6.50,1.82,1.36,-5.34,
17:41:54:897,23.12,-12.95,-3.32,1.82,1.36,-5.34,
17:41:54:898,23.12,-12.95,-3.32,1.69,1.98,-5.32,
17:41:54:901,23.12,-12.95,-3.32,1.60,2.52,-5.26,
17:41:54:902,21.36,-16.11,-1.83,1.60,2.52,-5.26,
17:41:54:907,21.36,-16.11,-1.83,1.47,2.95,-5.20,
17:41:54:909,19.33,-18.83,0.42,1.47,2.95,-5.20,
17:41:54:912,16.46,-20.32,3.89,1.47,2.95,-5.20,
17:41:54:914,16.46,-20.32,3.89,1.33,3.28,-5.14,
17:41:54:916,16.46,-20.32,3.89,1.28,3.54,-5.09,
17:41:54:918,13.14,-20.97,8.35,1.28,3.54,-5.09,
17:41:54:921,9.60,-21.77,12.81,1.28,3.54,-5.09,
17:41:54:922,9.60,-21.77,12.81,1.36,3.74,-5.02,
17:41:54:926,9.60,-21.77,12.81,1.61,3.88,-4.91,
17:41:54:927,6.23,-23.37,16.41,1.61,3.88,-4.91,
17:41:54:932,6.23,-23.37,16.41,2.00,3.99,-4.75,
17:41:54:933,2.89,-24.97,19.23,2.00,3.99,-4.75,
17:41:54:936,2.89,-24.97,19.23,2.53,4.09,-4.54,
17:41:54:937,-0.97,-25.28,21.76,2.53,4.09,-4.54,
17:41:54:941,-0.97,-25.28,21.76,3.15,4.18,-4.26,
17:41:54:942,-4.91,-24.88,22.56,3.15,4.18,-4.26,
17:41:54:946,-4.91,-24.88,22.56,3.80,4.22,-3.92,
17:41:54:947,-8.59,-24.69,21.86,3.80,4.22,-3.92,
17:41:54:952,-8.59,-24.69,21.86,4.38,4.20,-3.49,
17:41:54:953,-12.10,-24.72,20.56,4.38,4.20,-3.49,
17:41:54:956,-12.10,-24.72,20.56,4.89,4.14,-2.99,
17:41:54:958,-15.20,-24.65,18.95,4.89,4.14,-2.99,
17:41:54:961,-15.20,-24.65,18.95,5.30,4.07,-2.43,
17:41:54:962,-17.91,-24.12,16.98,5.30,4.07,-2.43,
17:41:54:966,-17.91,-24.12,16.98,5.63,4.03,-1.81,
17:41:54:967,-20.27,-23.36,14.87,5.63,4.03,-1.81,
17:41:54:970,-20.27,-23.36,14.87,5.86,4.04,-1.14,
17:41:54:972,-21.71,-22.65,12.90,5.86,4.04,-1.14,
17:41:54:975,-22.15,-21.98,11.32,5.86,4.04,-1.14,
17:41:54:977,-22.15,-21.98,11.32,6.00,4.07,-0.46,
17:41:54:980,-22.15,-21.98,11.32,6.07,4.06,0.22,
17:41:54:981,-21.66,-21.32,10.22,6.07,4.06,0.22,
17:41:54:985,-20.31,-20.77,9.42,6.07,4.06,0.22,
17:41:54:987,-20.31,-20.77,9.42,6.08,4.00,0.84,
17:41:54:989,-20.31,-20.77,9.42,6.06,3.87,1.38,
17:41:54:991,-18.20,-20.42,8.88,6.06,3.87,1.38,
17:41:54:994,-18.20,-20.42,8.88,6.01,3.66,1.82,
17:41:54:996,-15.75,-20.10,8.49,6.01,3.66,1.82,
17:41:55:000,-13.28,-19.75,8.05,6.01,3.66,1.82,
17:41:55:002,-13.28,-19.75,8.05,5.94,3.37,2.14,
17:41:55:004,-11.09,-19.24,7.37,5.94,3.37,2.14,
17:41:55:006,-11.09,-19.24,7.37,5.87,3.02,2.34,
17:41:55:009,-9.43,-18.61,6.21,5.87,3.02,2.34,
17:41:55:010,-9.43,-18.61,6.21,5.79,2.64,2.44,
17:41:55:013,-9.43,-18.61,6.21,5.67,2.28,2.45,
17:41:55:014,-8.28,-17.81,4.50,5.67,2.28,2.45,
17:41:55:018,-8.28,-17.81,4.50,5.50,1.97,2.43,
17:41:55:019,-7.72,-16.85,2.40,5.50,1.97,2.43,
17:41:55:023,-7.75,-15.83,0.07,5.50,1.97,2.43,
17:41:55:024,-7.75,-15.83,0.07,5.27,1.76,2.38,
17:41:55:028,-8.03,-14.70,-2.31,5.27,1.76,2.38,
17:41:55:029,-8.03,-14.70,-2.31,4.95,1.64,2.36,
17:41:55:033,-8.03,-14.70,-2.31,4.54,1.62,2.36,
17:41:55:034,-8.56,-13.36,-4.51,4.54,1.62,2.36,
17:41:55:093,-9.31,-11.91,-6.30,4.54,1.62,2.36,
17:41:55:094,-9.31,-11.91,-6.30,4.05,1.71,2.40,
17:41:55:094,-9.31,-11.91,-6.30,3.50,1.87,2.48,
17:41:55:095,-10.01,-10.75,-7.33,3.50,1.87,2.48,
17:41:55:096,-10.01,-10.75,-7.33,2.91,2.07,2.59,
17:41:55:097,-10.63,-9.80,-7.90,2.91,2.07,2.59,
17:41:55:098,-10.96,-9.11,-7.95,2.91,2.07,2.59,
17:41:55:098,-10.96,-9.11,-7.95,2.31,2.28,2.74,
17:41:55:099,-11.03,-8.78,-7.45,2.31,2.28,2.74,
17:41:55:100,-11.03,-8.78,-7.45,1.71,2.46,2.91,
17:41:55:101,-10.87,-8.60,-6.64,1.71,2.46,2.91,
17:41:55:101,-10.87,-8.60,-6.64,1.13,2.61,3.10,
17:41:55:102,-10.26,-8.71,-5.64,1.13,2.61,3.10,
17:41:55:103,-10.26,-8.71,-5.64,0.59,2.72,3.30,
17:41:55:103,-10.26,-8.71,-5.64,0.10,2.75,3.46,
17:41:55:104,-9.37,-8.76,-4.30,0.10,2.75,3.46,
17:41:55:105,-8.22,-8.85,-3.25,0.10,2.75,3.46,
17:41:55:106,-8.22,-8.85,-3.25,-0.32,2.64,3.58,
17:41:55:106,-7.21,-8.81,-2.30,-0.32,2.64,3.58,
17:41:55:107,-7.21,-8.81,-2.30,-0.70,2.39,3.66,
17:41:55:107,-7.21,-8.81,-2.30,-1.02,2.02,3.70,
17:41:55:108,-6.60,-8.61,-1.84,-1.02,2.02,3.70,
17:41:55:108,-6.60,-8.61,-1.84,-1.31,1.58,3.72,
17:41:55:109,-6.10,-8.41,-1.75,-1.31,1.58,3.72,
17:41:55:109,-5.59,-8.36,-1.98,-1.31,1.58,3.72,
17:41:55:110,-5.59,-8.36,-1.98,-1.58,1.14,3.75,
17:41:55:110,-5.12,-8.36,-2.12,-1.58,1.14,3.75,
17:41:55:111,-5.12,-8.36,-2.12,-1.85,0.72,3.79,
17:41:55:111,-5.12,-8.36,-2.12,-2.10,0.38,3.85,
17:41:55:112,-4.42,-8.52,-2.12,-2.10,0.38,3.85,
17:41:55:113,-4.42,-8.52,-2.12,-2.33,0.14,3.93,
17:41:55:114,-3.43,-8.86,-1.90,-2.33,0.14,3.93,
17:41:55:115,-3.43,-8.86,-1.90,-2.52,0.04,4.00,
17:41:55:116,-2.48,-9.21,-1.42,-2.52,0.04,4.00,
17:41:55:120,-2.48,-9.21,-1.42,-2.69,0.04,4.05,
17:41:55:121,-1.74,-9.32,-0.74,-2.69,0.04,4.05,
17:41:55:125,-1.74,-9.32,-0.74,-2.83,0.12,4.09,
17:41:55:125,-0.78,-9.38,-0.23,-2.83,0.12,4.09,
17:41:55:129,0.96,-9.69,0.00,-2.83,0.12,4.09,
17:41:55:130,0.96,-9.69,0.00,-2.95,0.25,4.09,
17:41:55:134,0.96,-9.69,0.00,-3.06,0.38,4.01,
17:41:55:135,3.07,-10.06,0.47,-3.06,0.38,4.01,
17:41:55:139,5.17,-10.35,1.21,-3.06,0.38,4.01,
17:41:55:140,5.17,-10.35,1.21,-3.17,0.47,3.84,
17:41:55:143,7.01,-10.48,1.96,-3.17,0.47,3.84,
17:41:55:144,7.01,-10.48,1.96,-3.26,0.44,3.59,
17:41:55:149,8.85,-10.66,1.91,-3.26,0.44,3.59,
17:41:55:150,8.85,-10.66,1.91,-3.33,0.29,3.26,
17:41:55:154,10.49,-10.84,1.46,-3.33,0.29,3.26,
17:41:55:154,10.49,-10.84,1.46,-3.42,0.05,2.88,
17:41:55:160,11.68,-10.80,0.97,-3.42,0.05,2.88,
17:41:55:161,11.68,-10.80,0.97,-3.52,-0.25,2.45,
17:41:55:163,12.45,-10.45,0.61,-3.52,-0.25,2.45,
17:41:55:164,12.45,-10.45,0.61,-3.63,-0.58,2.01,
17:41:55:169,12.50,-10.02,0.23,-3.63,-0.58,2.01,
17:41:55:171,12.50,-10.02,0.23,-3.74,-0.94,1.61,
17:41:55:174,12.50,-10.02,0.23,-3.84,-1.29,1.29,
17:41:55:175,11.92,-9.88,-0.33,-3.84,-1.29,1.29,
17:41:55:180,11.92,-9.88,-0.33,-3.93,-1.57,1.08,
17:41:55:183,11.32,-10.33,-0.82,-3.93,-1.57,1.08,
17:41:55:184,10.68,-11.24,-1.10,-3.93,-1.57,1.08,
17:41:55:185,10.68,-11.24,-1.10,-4.00,-1.75,1.03,
17:41:55:188,10.68,-11.24,-1.10,-4.04,-1.81,1.15,
17:41:55:189,9.54,-11.83,-1.29,-4.04,-1.81,1.15,
17:41:55:193,9.54,-11.83,-1.29,-4.06,-1.71,1.47,
17:41:55:194,8.48,-11.84,-1.89,-4.06,-1.71,1.47,
17:41:55:198,8.48,-11.84,-1.89,-4.04,-1.44,1.96,
17:41:55:199,8.63,-11.80,-2.60,-4.04,-1.44,1.96,
17:41:55:203,8.63,-11.80,-2.60,-4.01,-1.08,2.53,
17:41:55:204,10.41,-11.75,-2.93,-4.01,-1.08,2.53,
17:41:55:208,13.84,-11.61,-2.67,-4.01,-1.08,2.53,
17:41:55:209,13.84,-11.61,-2.67,-3.97,-0.78,3.07,
17:41:55:213,13.84,-11.61,-2.67,-3.91,-0.63,3.50,
17:41:55:214,18.35,-11.09,-1.44,-3.91,-0.63,3.50,
17:41:55:217,18.35,-11.09,-1.44,-3.79,-0.70,3.76,
17:41:55:218,22.72,-9.88,0.41,-3.79,-0.70,3.76,
17:41:55:223,26.58,-7.98,2.03,-3.79,-0.70,3.76,
17:41:55:225,26.58,-7.98,2.03,-3.58,-0.98,3.85,
17:41:55:227,26.58,-7.98,2.03,-3.27,-1.39,3.81,
17:41:55:228,29.92,-5.73,2.99,-3.27,-1.39,3.81,
17:41:55:233,31.64,-3.31,2.72,-3.27,-1.39,3.81,
17:41:55:235,31.64,-3.31,2.72,-2.89,-1.83,3.64,
17:41:55:237,31.64,-3.31,2.72,-2.48,-2.22,3.33,
17:41:55:238,31.71,-1.07,0.80,-2.48,-2.22,3.33,
17:41:55:243,31.71,-1.07,0.80,-2.15,-2.44,2.91,
17:41:55:245,31.78,0.73,-2.97,-2.15,-2.44,2.91,
17:41:55:247,31.78,0.73,-2.97,-1.95,-2.40,2.46,
17:41:55:248,31.84,2.20,-7.65,-1.95,-2.40,2.46,
17:41:55:252,28.84,3.56,-11.81,-1.95,-2.40,2.46,
17:41:55:253,28.84,3.56,-11.81,-1.95,-2.05,2.05,
17:41:55:257,28.84,3.56,-11.81,-2.12,-1.45,1.75,
17:41:55:258,24.86,4.85,-14.71,-2.12,-1.45,1.75,
17:41:55:261,21.27,5.87,-16.36,-2.12,-1.45,1.75,
17:41:55:262,21.27,5.87,-16.36,-2.42,-0.75,1.55,
17:41:55:267,18.06,6.45,-16.82,-2.42,-0.75,1.55,
17:41:55:268,18.06,6.45,-16.82,-2.82,-0.07,1.41,
17:41:55:271,15.23,6.75,-16.10,-2.82,-0.07,1.41,
17:41:55:272,15.23,6.75,-16.10,-3.27,0.51,1.30,
17:41:55:276,12.61,6.89,-14.49,-3.27,0.51,1.30,
17:41:55:277,12.61,6.89,-14.49,-3.72,0.95,1.19,
17:41:55:325,12.61,6.89,-14.49,-4.14,1.22,1.08,
17:41:55:326,9.85,7.06,-12.38,-4.14,1.22,1.08,
17:41:55:326,9.85,7.06,-12.38,-4.49,1.36,0.98,
17:41:55:327,7.06,7.28,-9.97,-4.49,1.36,0.98,
17:41:55:327,7.06,7.28,-9.97,-4.77,1.41,0.91,
17:41:55:328,4.36,7.42,-7.22,-4.77,1.41,0.91,
17:41:55:328,4.36,7.42,-7.22,-4.93,1.38,0.87,
17:41:55:329,1.81,7.46,-4.01,-4.93,1.38,0.87,
17:41:55:329,1.81,7.46,-4.01,-4.99,1.28,0.86,
17:41:55:330,-0.44,7.52,-0.69,-4.99,1.28,0.86,
17:41:55:331,-2.31,7.66,2.60,-4.99,1.28,0.86,
17:41:55:331,-2.31,7.66,2.60,-4.91,1.12,0.88,
17:41:55:332,-2.31,7.66,2.60,-4.72,0.91,0.92,
17:41:55:332,-3.68,7.85,5.62,-4.72,0.91,0.92,
17:41:55:333,-3.68,7.85,5.62,-4.42,0.67,0.94,
17:41:55:334,-4.60,8.05,8.17,-4.42,0.67,0.94,
17:41:55:334,-5.32,8.35,10.23,-4.42,0.67,0.94,
17:41:55:335,-5.32,8.35,10.23,-4.03,0.41,0.96,
17:41:55:335,-5.32,8.35,10.23,-3.56,0.14,0.96,
17:41:55:336,-6.00,8.84,11.87,-3.56,0.14,0.96,
17:41:55:337,-6.54,9.47,12.96,-3.56,0.14,0.96,
17:41:55:337,-6.54,9.47,12.96,-3.05,-0.13,0.94,
17:41:55:337,-6.54,9.47,12.96,-2.50,-0.41,0.89,
17:41:55:338,-6.95,10.18,13.58,-2.50,-0.41,0.89,
17:41:55:339,-6.95,10.18,13.58,-1.94,-0.70,0.82,
17:41:55:339,-7.31,10.86,13.47,-1.94,-0.70,0.82,
17:41:55:343,-7.78,11.46,12.71,-1.94,-0.70,0.82,
17:41:55:344,-7.78,11.46,12.71,-1.41,-0.98,0.72,
17:41:55:348,-7.78,11.46,12.71,-0.91,-1.23,0.60,
17:41:55:349,-8.59,12.09,11.92,-0.91,-1.23,0.60,
17:41:55:353,-9.42,12.68,11.16,-0.91,-1.23,0.60,
17:41:55:353,-9.42,12.68,11.16,-0.46,-1.44,0.48,
17:41:55:358,-10.15,13.26,10.27,-0.46,-1.44,0.48,
17:41:55:358,-10.15,13.26,10.27,-0.05,-1.63,0.35,
17:41:55:362,-10.87,13.67,9.30,-0.05,-1.63,0.35,
17:41:55:363,-10.87,13.67,9.30,0.31,-1.81,0.23,
17:41:55:367,-10.87,13.67,9.30,0.63,-1.96,0.12,
17:41:55:368,-11.36,13.88,8.63,0.63,-1.96,0.12,
17:41:55:372,-11.36,13.88,8.63,0.91,-2.11,0.03,
17:41:55:373,-11.98,14.24,7.40,0.91,-2.11,0.03,
17:41:55:377,-11.98,14.24,7.40,1.15,-2.21,-0.05,
17:41:55:378,-12.59,14.68,6.70,1.15,-2.21,-0.05,
17:41:55:382,-12.59,14.68,6.70,1.35,-2.31,-0.09,
17:41:55:382,-12.76,14.64,6.25,1.35,-2.31,-0.09,
17:41:55:387,-12.76,14.64,6.25,1.53,-2.40,-0.13,
17:41:55:388,-12.71,14.49,5.94,1.53,-2.40,-0.13,
17:41:55:391,-12.71,14.49,5.94,1.69,-2.53,-0.18,
17:41:55:392,-12.53,14.46,5.55,1.69,-2.53,-0.18,
17:41:55:397,-12.37,14.60,4.80,1.69,-2.53,-0.18,
17:41:55:398,-12.37,14.60,4.80,1.84,-2.70,-0.23,
17:41:55:402,-12.37,14.60,4.80,1.94,-2.88,-0.29,
17:41:55:403,-12.23,14.75,3.89,1.94,-2.88,-0.29,
17:41:55:407,-11.93,14.80,3.27,1.94,-2.88,-0.29,
17:41:55:408,-11.93,14.80,3.27,2.00,-3.07,-0.36,
17:41:55:411,-11.51,15.03,1.87,2.00,-3.07,-0.36,
17:41:55:412,-11.51,15.03,1.87,2.01,-3.23,-0.44,
17:41:55:416,-11.02,15.58,1.07,2.01,-3.23,-0.44,
17:41:55:417,-11.02,15.58,1.07,1.97,-3.30,-0.54,
17:41:55:421,-11.02,15.58,1.07,1.90,-3.34,-0.66,
17:41:55:422,-10.03,15.79,0.71,1.90,-3.34,-0.66,
17:41:55:426,-10.03,15.79,0.71,1.80,-3.36,-0.82,
17:41:55:428,-8.84,15.87,0.43,1.80,-3.36,-0.82,
17:41:55:431,-7.48,15.85,0.31,1.80,-3.36,-0.82,
17:41:55:432,-7.48,15.85,0.31,1.70,-3.38,-1.01,
17:41:55:436,-7.48,15.85,0.31,1.60,-3.42,-1.23,
17:41:55:437,-5.76,15.65,0.01,1.60,-3.42,-1.23,
17:41:55:441,-3.78,15.31,-0.37,1.60,-3.42,-1.23,
17:41:55:442,-3.78,15.31,-0.37,1.48,-3.47,-1.52,
17:41:55:446,-3.78,15.31,-0.37,1.36,-3.53,-1.86,
17:41:55:447,-1.54,14.50,-1.12,1.36,-3.53,-1.86,
17:41:55:451,0.12,13.70,-1.82,1.36,-3.53,-1.86,
17:41:55:452,0.12,13.70,-1.82,1.22,-3.57,-2.26,
17:41:55:455,0.12,13.70,-1.82,1.08,-3.58,-2.69,
17:41:55:456,1.29,12.91,-2.63,1.08,-3.58,-2.69,
17:41:55:460,2.04,12.05,-3.14,1.08,-3.58,-2.69,
17:41:55:461,2.04,12.05,-3.14,0.92,-3.55,-3.10,
17:41:55:465,2.04,12.05,-3.14,0.77,-3.48,-3.49,
17:41:55:467,2.34,11.29,-3.20,0.77,-3.48,-3.49,
17:41:55:470,2.34,11.29,-3.20,0.64,-3.39,-3.83,
17:41:55:471,2.22,10.43,-3.73,0.64,-3.39,-3.83,
17:41:55:474,1.86,9.86,-3.83,0.64,-3.39,-3.83,
17:41:55:476,1.86,9.86,-3.83,0.54,-3.26,-4.11,
17:41:55:480,1.86,9.86,-3.83,0.46,-3.11,-4.33,
17:41:55:481,1.51,9.31,-3.67,0.46,-3.11,-4.33,
17:41:55:484,1.21,8.81,-3.27,0.46,-3.11,-4.33,
17:41:55:486,1.21,8.81,-3.27,0.42,-2.99,-4.49,
17:41:55:490,1.21,8.81,-3.27,0.41,-2.93,-4.59,
17:41:55:492,1.01,8.36,-2.74,0.41,-2.93,-4.59,
17:41:55:494,1.01,8.36,-2.74,0.46,-2.94,-4.64,
17:41:55:495,0.74,7.99,-2.43,0.46,-2.94,-4.64,
17:41:55:499,0.74,7.99,-2.43,0.54,-2.99,-4.64,
17:41:55:501,0.81,7.71,-2.27,0.54,-2.99,-4.64,
17:41:55:504,1.48,7.49,-2.32,0.54,-2.99,-4.64,
17:41:55:504,1.48,7.49,-2.32,0.66,-3.07,-4.60,
17:41:55:508,1.48,7.49,-2.32,0.83,-3.17,-4.53,
17:41:55:509,2.50,7.26,-2.58,0.83,-3.17,-4.53,
17:41:55:513,2.50,7.26,-2.58,1.05,-3.26,-4.43,
17:41:55:514,4.02,6.96,-2.97,1.05,-3.26,-4.43,
17:41:55:518,4.02,6.96,-2.97,1.30,-3.38,-4.30,
17:41:55:519,6.37,6.27,-3.75,1.30,-3.38,-4.30,
17:41:55:572,6.37,6.27,-3.75,1.56,-3.58,-4.17,
17:41:55:573,9.58,4.50,-5.53,1.56,-3.58,-4.17,
17:41:55:574,12.80,2.61,-8.44,1.56,-3.58,-4.17,
17:41:55:574,12.80,2.61,-8.44,1.84,-3.79,-4.05,
17:41:55:575,15.63,1.30,-12.00,1.84,-3.79,-4.05,
17:41:55:575,15.63,1.30,-12.00,2.10,-3.90,-3.95,
17:41:55:576,15.63,1.30,-12.00,2.29,-3.93,-3.86,
17:41:55:577,17.74,0.84,-15.72,2.29,-3.93,-3.86,
17:41:55:577,19.50,0.56,-19.61,2.29,-3.93,-3.86,
17:41:55:578,19.50,0.56,-19.61,2.34,-3.96,-3.77,
17:41:55:579,19.50,0.56,-19.61,2.22,-4.05,-3.68,
17:41:55:579,21.30,0.10,-21.75,2.22,-4.05,-3.68,
17:41:55:583,22.17,-0.53,-27.24,2.22,-4.05,-3.68,
17:41:55:584,22.17,-0.53,-27.24,1.95,-4.13,-3.60,
17:41:55:586,22.17,-0.53,-27.24,1.55,-3.94,-3.51,
17:41:55:587,22.14,-0.65,-30.47,1.55,-3.94,-3.51,
17:41:55:591,22.14,-0.65,-30.47,1.01,-3.54,-3.38,
17:41:55:597,22.14,-0.57,-30.51,1.01,-3.54,-3.38,
17:41:55:599,22.37,-0.59,-30.42,1.01,-3.54,-3.38,
17:41:55:601,22.37,-0.59,-30.42,0.38,-3.02,-3.21,
17:41:55:601,22.93,-1.14,-29.70,0.38,-3.02,-3.21,
17:41:55:602,22.93,-1.14,-29.70,-0.30,-2.57,-3.01,
17:41:55:603,22.93,-1.14,-29.70,-0.98,-2.20,-2.83,
17:41:55:603,23.63,-2.24,-27.04,-0.98,-2.20,-2.83,
17:41:55:604,23.63,-2.24,-27.04,-1.62,-1.88,-2.71,
17:41:55:605,24.31,-3.61,-23.28,-1.62,-1.88,-2.71,
17:41:55:608,24.62,-5.13,-18.52,-1.62,-1.88,-2.71,
17:41:55:608,24.62,-5.13,-18.52,-2.17,-1.57,-2.64,
17:41:55:609,24.62,-5.13,-18.52,-2.58,-1.28,-2.62,
17:41:55:609,24.52,-6.72,-13.43,-2.58,-1.28,-2.62,
17:41:55:609,24.52,-6.72,-13.43,-2.84,-1.00,-2.63,
17:41:55:610,23.92,-8.33,-8.26,-2.84,-1.00,-2.63,
17:41:55:610,23.92,-8.33,-8.26,-2.96,-0.71,-2.66,
17:41:55:611,23.00,-9.77,-3.22,-2.96,-0.71,-2.66,
17:41:55:611,23.00,-9.77,-3.22,-2.92,-0.41,-2.71,
17:41:55:612,21.69,-11.02,2.10,-2.92,-0.41,-2.71,
17:41:55:612,20.50,-12.25,7.11,-2.92,-0.41,-2.71,
17:41:55:612,20.50,-12.25,7.11,-2.72,-0.15,-2.75,
17:41:55:616,18.36,-12.87,11.93,-2.72,-0.15,-2.75,
17:41:55:617,18.36,-12.87,11.93,-2.36,0.06,-2.80,
17:41:55:621,18.36,-12.87,11.93,-1.86,0.18,-2.83,
17:41:55:623,17.71,-13.85,15.70,-1.86,0.18,-2.83,
17:41:55:626,17.71,-13.85,15.70,-1.28,0.19,-2.95,
17:41:55:626,16.00,-14.38,18.50,-1.28,0.19,-2.95,
17:41:55:629,13.18,-14.09,20.34,-1.28,0.19,-2.95,
17:41:55:630,13.18,-14.09,20.34,-0.65,0.11,-3.08,
17:41:55:635,10.86,-13.72,21.11,-0.65,0.11,-3.08,
17:41:55:636,10.86,-13.72,21.11,0.02,0.00,-3.13,
17:41:55:642,10.86,-13.72,21.11,0.66,-0.11,-3.14,
17:41:55:643,8.77,-13.59,20.73,0.66,-0.11,-3.14,
17:41:55:645,6.82,-13.50,19.52,0.66,-0.11,-3.14,
17:41:55:646,6.82,-13.50,19.52,1.22,-0.20,-3.13,
17:41:55:650,6.82,-13.50,19.52,1.69,-0.23,-3.11,
17:41:55:651,4.95,-13.20,17.88,1.69,-0.23,-3.11,
17:41:55:654,3.25,-12.96,16.01,1.69,-0.23,-3.11,
17:41:55:654,3.25,-12.96,16.01,2.03,-0.18,-3.06,
17:41:55:662,1.66,-12.67,14.17,2.03,-0.18,-3.06,
17:41:55:663,1.66,-12.67,14.17,2.24,-0.07,-2.99,
17:41:55:663,0.12,-12.43,12.30,2.24,-0.07,-2.99,
17:41:55:664,0.12,-12.43,12.30,2.33,0.11,-2.90,
17:41:55:669,0.12,-12.43,12.30,2.28,0.34,-2.80,
17:41:55:670,-1.43,-12.20,10.76,2.28,0.34,-2.80,
17:41:55:674,-1.43,-12.20,10.76,2.11,0.63,-2.69,
17:41:55:674,-2.83,-11.97,9.61,2.11,0.63,-2.69,
17:41:55:679,-2.83,-11.97,9.61,1.84,0.93,-2.56,
17:41:55:680,-4.25,-11.61,9.42,1.84,0.93,-2.56,
17:41:55:683,-4.25,-11.61,9.42,1.53,1.23,-2.42,
17:41:55:684,-5.70,-11.40,9.62,1.53,1.23,-2.42,
17:41:55:689,-5.70,-11.40,9.62,1.18,1.51,-2.27,
17:41:55:690,-6.78,-11.30,10.50,1.18,1.51,-2.27,
17:41:55:694,-6.78,-11.30,10.50,0.86,1.77,-2.11,
17:41:55:696,-7.67,-11.41,11.91,0.86,1.77,-2.11,
17:41:55:697,-7.67,-11.41,11.91,0.59,1.98,-1.95,
17:41:55:700,-8.62,-11.69,13.74,0.59,1.98,-1.95,
17:41:55:703,-8.62,-11.69,13.74,0.38,2.12,-1.79,
17:41:55:704,-9.28,-12.17,15.37,0.38,2.12,-1.79,
17:41:55:709,-10.02,-12.65,17.13,0.38,2.12,-1.79,
17:41:55:711,-10.02,-12.65,17.13,0.25,2.19,-1.64,
17:41:55:714,-10.73,-12.96,18.83,0.25,2.19,-1.64,
17:41:55:716,-10.73,-12.96,18.83,0.19,2.20,-1.50,
17:41:55:718,-11.41,-13.11,20.36,0.19,2.20,-1.50,
17:41:55:720,-11.41,-13.11,20.36,0.21,2.16,-1.36,
17:41:55:722,-12.09,-13.36,21.46,0.21,2.16,-1.36,
17:41:55:723,-12.09,-13.36,21.46,0.31,2.08,-1.21,
17:41:55:731,-12.09,-13.36,21.46,0.48,2.00,-1.04,
17:41:55:732,-12.70,-13.88,22.23,0.48,2.00,-1.04,
17:41:55:733,-12.70,-13.88,22.23,0.69,1.90,-0.86,
17:41:55:735,-13.44,-14.29,22.49,0.69,1.90,-0.86,
17:41:55:736,-13.44,-14.29,22.49,0.93,1.80,-0.63,
17:41:55:737,-13.80,-14.44,22.31,0.93,1.80,-0.63,
17:41:55:741,-13.80,-14.44,22.31,1.19,1.73,-0.38,
17:41:55:743,-14.07,-14.56,21.53,1.19,1.73,-0.38,
17:41:55:746,-14.26,-14.75,20.18,1.19,1.73,-0.38,
17:41:55:747,-14.26,-14.75,20.18,1.44,1.70,-0.10,
17:41:55:751,-14.35,-14.88,18.42,1.44,1.70,-0.10,
17:41:55:752,-14.35,-14.88,18.42,1.66,1.71,0.21,
17:41:55:756,-14.35,-14.88,18.42,1.83,1.80,0.54,
17:41:55:757,-14.09,-14.94,16.15,1.83,1.80,0.54,
17:41:55:761,-14.09,-14.94,16.15,1.92,1.94,0.88,
17:41:55:762,-13.90,-14.91,14.02,1.92,1.94,0.88,
17:41:55:803,-13.90,-14.91,14.02,1.94,2.14,1.24,
17:41:55:804,-13.88,-14.81,11.92,1.94,2.14,1.24,
17:41:55:806,-13.88,-14.81,11.92,1.89,2.35,1.63,
17:41:55:808,-13.91,-14.54,10.05,1.89,2.35,1.63,
17:41:55:810,-13.91,-14.54,10.05,1.77,2.55,2.06,
17:41:55:811,-13.43,-14.36,8.01,1.77,2.55,2.06,
17:41:55:812,-13.43,-14.36,8.01,1.57,2.75,2.50,
17:41:55:813,-12.76,-14.28,6.52,1.57,2.75,2.50,
17:41:55:814,-12.76,-14.28,6.52,1.32,2.87,2.95,
17:41:55:814,-11.78,-14.03,5.51,1.32,2.87,2.95,
17:41:55:815,-10.29,-13.96,4.64,1.32,2.87,2.95,
17:41:55:816,-10.29,-13.96,4.64,1.04,2.89,3.39,
17:41:55:817,-10.29,-13.96,4.64,0.74,2.82,3.81,
17:41:55:818,-8.51,-13.80,4.11,0.74,2.82,3.81,
17:41:55:819,-6.43,-13.64,3.78,0.74,2.82,3.81,
17:41:55:820,-6.43,-13.64,3.78,0.43,2.65,4.19,
17:41:55:820,-6.43,-13.64,3.78,0.13,2.40,4.51,
17:41:55:821,-3.80,-13.51,3.45,0.13,2.40,4.51,
17:41:55:822,-3.80,-13.51,3.45,-0.17,2.08,4.75,
17:41:55:823,-0.63,-13.28,3.24,-0.17,2.08,4.75,
17:41:55:824,2.73,-12.82,3.25,-0.17,2.08,4.75,
17:41:55:825,2.73,-12.82,3.25,-0.44,1.68,4.88,
17:41:55:826,2.73,-12.82,3.25,-0.67,1.21,4.90,
17:41:55:829,5.94,-12.08,3.11,-0.67,1.21,4.90,
17:41:55:830,5.94,-12.08,3.11,-0.87,0.70,4.82,
17:41:55:831,8.94,-11.36,2.18,-0.87,0.70,4.82,
17:41:55:831,8.94,-11.36,2.18,-1.05,0.22,4.67,
17:41:55:832,11.05,-10.48,1.05,-1.05,0.22,4.67,
17:41:55:833,11.05,-10.48,1.05,-1.23,-0.17,4.48,
17:41:55:833,12.12,-9.61,-0.55,-1.23,-0.17,4.48,
17:41:55:839,12.12,-9.61,-0.55,-1.43,-0.40,4.31,
17:41:55:840,12.78,-8.99,-2.33,-1.43,-0.40,4.31,
17:41:55:843,12.78,-8.99,-2.33,-1.64,-0.45,4.18,
17:41:55:844,13.38,-8.62,-3.98,-1.64,-0.45,4.18,
17:41:55:848,13.38,-8.62,-3.98,-1.88,-0.34,4.08,
17:41:55:849,13.66,-8.39,-5.35,-1.88,-0.34,4.08,
17:41:55:853,13.66,-8.39,-5.35,-2.14,-0.11,4.01,
17:41:55:853,13.96,-8.45,-6.39,-2.14,-0.11,4.01,
17:41:55:857,13.96,-8.45,-6.39,-2.41,0.18,3.97,
17:41:55:858,14.49,-8.80,-7.07,-2.41,0.18,3.97,
17:41:55:862,14.49,-8.80,-7.07,-2.67,0.49,3.97,
17:41:55:863,14.81,-9.03,-7.37,-2.67,0.49,3.97,
17:41:55:867,14.81,-9.03,-7.37,-2.91,0.83,4.00,
17:41:55:868,14.88,-8.97,-7.52,-2.91,0.83,4.00,
17:41:55:872,14.88,-8.97,-7.52,-3.09,1.22,4.09,
17:41:55:873,14.81,-8.59,-7.35,-3.09,1.22,4.09,
17:41:55:877,14.81,-8.59,-7.35,-3.21,1.61,4.22,
17:41:55:878,14.63,-7.58,-6.34,-3.21,1.61,4.22,
17:41:55:883,15.03,-6.00,-4.85,-3.21,1.61,4.22,
17:41:55:883,15.03,-6.00,-4.85,-3.22,1.91,4.39,
17:41:55:887,16.40,-4.47,-3.18,-3.22,1.91,4.39,
17:41:55:887,16.40,-4.47,-3.18,-3.13,1.95,4.58,
17:41:55:891,18.93,-3.62,-1.73,-3.13,1.95,4.58,
17:41:55:892,18.93,-3.62,-1.73,-2.95,1.60,4.72,
17:41:55:897,18.93,-3.62,-1.73,-2.69,0.88,4.80,
17:41:55:898,22.29,-3.47,-1.34,-2.69,0.88,4.80,
17:41:55:903,22.29,-3.47,-1.34,-2.37,0.01,4.78,
17:41:55:903,25.13,-3.49,-2.54,-2.37,0.01,4.78,
17:41:55:907,25.13,-3.49,-2.54,-2.04,-0.78,4.66,
17:41:55:908,26.64,-3.01,-4.99,-2.04,-0.78,4.66,
17:41:55:911,26.64,-3.01,-4.99,-1.74,-1.29,4.49,
17:41:55:912,27.03,-1.73,-7.82,-1.74,-1.29,4.49,
17:41:55:917,27.03,-1.73,-7.82,-1.50,-1.50,4.32,
17:41:55:918,26.94,-0.13,-10.74,-1.50,-1.50,4.32,
17:41:55:921,26.70,1.18,-14.06,-1.50,-1.50,4.32,
17:41:55:923,26.70,1.18,-14.06,-1.36,-1.42,4.12,
17:41:55:928,26.70,1.18,-14.06,-1.37,-1.11,3.89,
17:41:55:929,26.20,2.04,-17.47,-1.37,-1.11,3.89,
17:41:55:930,26.20,2.04,-17.47,-1.55,-0.59,3.63,
17:41:55:931,25.32,2.61,-19.66,-1.55,-0.59,3.63,
17:41:55:936,25.32,2.61,-19.66,-1.86,0.04,3.33,
17:41:55:937,23.66,3.18,-20.22,-1.86,0.04,3.33,
17:41:55:941,21.22,3.83,-19.43,-1.86,0.04,3.33,
17:41:55:942,21.22,3.83,-19.43,-2.25,0.69,3.03,
17:41:55:945,18.10,4.31,-17.63,-2.25,0.69,3.03,
17:41:55:947,18.10,4.31,-17.63,-2.66,1.30,2.74,
17:41:55:950,14.68,4.63,-15.01,-2.66,1.30,2.74,
17:41:55:951,14.68,4.63,-15.01,-3.05,1.84,2.49,
17:41:55:955,11.27,4.81,-11.75,-3.05,1.84,2.49,
17:41:55:956,11.27,4.81,-11.75,-3.37,2.28,2.28,
17:41:55:960,11.27,4.81,-11.75,-3.60,2.60,2.13,
17:41:55:961,8.09,4.94,-8.18,-3.60,2.60,2.13,
17:41:55:969,8.09,4.94,-8.18,-3.72,2.80,2.01,
17:41:55:970,5.09,5.04,-4.61,-3.72,2.80,2.01,
17:41:55:971,5.09,5.04,-4.61,-3.74,2.87,1.93,
17:41:55:971,2.27,5.22,-1.31,-3.74,2.87,1.93,
17:41:55:975,2.27,5.22,-1.31,-3.65,2.80,1.89,
17:41:55:976,-0.24,5.43,1.50,-3.65,2.80,1.89,
17:41:55:979,-2.46,5.65,3.83,-3.65,2.80,1.89,
17:41:55:980,-2.46,5.65,3.83,-3.48,2.63,1.89,
17:41:55:984,-4.42,5.95,5.75,-3.48,2.63,1.89,
17:41:55:984,-4.42,5.95,5.75,-3.24,2.38,1.92,
17:41:55:989,-4.42,5.95,5.75,-2.95,2.07,1.99,
17:41:55:989,-6.00,6.36,7.18,-2.95,2.07,1.99,
17:41:55:994,-7.25,6.87,8.06,-2.95,2.07,1.99,
17:41:55:995,-7.25,6.87,8.06,-2.62,1.73,2.08,
17:41:55:999,-8.12,7.45,8.54,-2.62,1.73,2.08,
17:41:55:999,-8.12,7.45,8.54,-2.27,1.38,2.17,
17:41:56:003,-8.12,7.45,8.54,-1.91,1.07,2.27,
17:41:56:004,-8.57,8.09,8.68,-1.91,1.07,2.27,
17:41:56:053,-8.57,8.09,8.68,-1.56,0.79,2.37,
17:41:56:054,-8.65,8.71,8.56,-1.56,0.79,2.37,
17:41:56:054,-8.51,9.34,8.23,-1.56,0.79,2.37,
17:41:56:055,-8.51,9.34,8.23,-1.22,0.58,2.44,
17:41:56:056,-8.51,9.34,8.23,-0.89,0.42,2.49,
17:41:56:057,-8.17,10.03,7.93,-0.89,0.42,2.49,
17:41:56:058,-8.17,10.03,7.93,-0.58,0.32,2.52,
17:41:56:058,-8.17,10.03,7.93,-0.27,0.24,2.50,
17:41:56:059,-7.38,10.67,7.50,-0.27,0.24,2.50,
17:41:56:059,-6.77,11.20,7.02,-0.27,0.24,2.50,
17:41:56:060,-6.77,11.20,7.02,0.01,0.19,2.43,
17:41:56:060,-6.41,11.86,6.45,0.01,0.19,2.43,
17:41:56:061,-6.41,12.56,6.08,0.01,0.19,2.43,
17:41:56:062,-6.41,12.56,6.08,0.27,0.18,2.34,
17:41:56:062,-6.41,12.56,6.08,0.52,0.22,2.23,
17:41:56:063,-6.42,13.15,5.89,0.52,0.22,2.23,
17:41:56:063,-6.19,13.63,5.64,0.52,0.22,2.23,
17:41:56:064,-6.19,13.63,5.64,0.77,0.28,2.12,
17:41:56:064,-5.58,14.11,5.19,0.77,0.28,2.12,
17:41:56:065,-5.58,14.11,5.19,0.99,0.32,1.98,
17:41:56:066,-5.58,14.11,5.19,1.20,0.33,1.80,
17:41:56:067,-5.02,14.47,4.74,1.20,0.33,1.80,
17:41:56:067,-5.02,14.47,4.74,1.37,0.23,1.58,
17:41:56:068,-4.20,14.92,3.77,1.37,0.23,1.58,
17:41:56:068,-4.20,14.92,3.77,1.49,0.00,1.30,
17:41:56:068,-3.73,15.60,2.41,1.49,0.00,1.30,
17:41:56:072,-3.73,15.60,2.41,1.55,-0.33,0.98,
17:41:56:073,-3.70,16.39,1.34,1.55,-0.33,0.98,
17:41:56:077,-3.70,16.39,1.34,1.54,-0.75,0.64,
17:41:56:078,-4.09,17.04,-0.96,1.54,-0.75,0.64,
17:41:56:082,-5.32,18.02,-2.73,1.54,-0.75,0.64,
17:41:56:082,-5.32,18.02,-2.73,1.46,-1.15,0.32,
17:41:56:086,-5.32,18.02,-2.73,1.30,-1.51,0.07,
17:41:56:087,-6.77,18.84,-4.30,1.30,-1.51,0.07,
17:41:56:092,-7.56,19.28,-5.87,1.30,-1.51,0.07,
17:41:56:093,-7.56,19.28,-5.87,1.07,-1.81,-0.11,
17:41:56:097,-7.56,19.28,-5.87,0.78,-2.00,-0.23,
17:41:56:098,-7.54,19.52,-6.99,0.78,-2.00,-0.23,
17:41:56:100,-6.83,19.18,-8.28,0.78,-2.00,-0.23,
17:41:56:101,-6.83,19.18,-8.28,0.43,-2.13,-0.32,
17:41:56:106,-6.83,19.18,-8.28,0.07,-2.13,-0.41,
17:41:56:107,-5.98,18.76,-8.83,0.07,-2.13,-0.41,
17:41:56:110,-5.98,18.76,-8.83,-0.30,-2.06,-0.51,
17:41:56:111,-4.68,18.11,-8.92,-0.30,-2.06,-0.51,
17:41:56:115,-4.68,18.11,-8.92,-0.67,-1.96,-0.64,
17:41:56:116,-3.09,17.31,-8.80,-0.67,-1.96,-0.64,
17:41:56:120,-3.09,17.31,-8.80,-1.03,-1.87,-0.80,
17:41:56:121,-1.57,16.50,-7.70,-1.03,-1.87,-0.80,
17:41:56:125,-1.57,16.50,-7.70,-1.35,-1.81,-0.98,
17:41:56:125,-0.22,15.47,-6.79,-1.35,-1.81,-0.98,
17:41:56:130,-0.22,15.47,-6.79,-1.63,-1.77,-1.20,
17:41:56:130,0.88,14.45,-5.78,-1.63,-1.77,-1.20,
17:41:56:134,0.88,14.45,-5.78,-1.87,-1.74,-1.43,
17:41:56:135,1.97,13.41,-4.97,-1.87,-1.74,-1.43,
17:41:56:139,1.97,13.41,-4.97,-2.08,-1.68,-1.67,
17:41:56:140,2.98,12.37,-4.07,-2.08,-1.68,-1.67,
17:41:56:146,2.98,12.37,-4.07,-2.25,-1.62,-1.94,
17:41:56:147,3.75,11.34,-3.07,-2.25,-1.62,-1.94,
17:41:56:149,3.75,11.34,-3.07,-2.39,-1.54,-2.21,
17:41:56:149,4.28,10.35,-1.99,-2.39,-1.54,-2.21,
17:41:56:155,4.58,9.41,-0.81,-2.39,-1.54,-2.21,
17:41:56:155,4.58,9.41,-0.81,-2.50,-1.45,-2.48,
17:41:56:159,4.58,9.41,-0.81,-2.56,-1.35,-2.74,
17:41:56:160,4.62,8.60,0.40,-2.56,-1.35,-2.74,
17:41:56:164,4.39,7.90,1.37,-2.56,-1.35,-2.74,
17:41:56:165,4.39,7.90,1.37,-2.57,-1.26,-2.99,
17:41:56:168,4.39,7.90,1.37,-2.56,-1.17,-3.21,
17:41:56:169,3.95,7.35,2.20,-2.56,-1.17,-3.21,
17:41:56:173,3.95,7.35,2.20,-2.54,-1.10,-3.41,
17:41:56:174,3.53,6.91,2.88,-2.54,-1.10,-3.41,
17:41:56:179,3.53,6.91,2.88,-2.50,-1.06,-3.58,
17:41:56:180,3.23,6.47,3.42,-2.50,-1.06,-3.58,
17:41:56:184,3.23,6.47,3.42,-2.44,-1.03,-3.72,
17:41:56:185,3.37,6.05,3.75,-2.44,-1.03,-3.72,
17:41:56:188,3.37,6.05,3.75,-2.37,-1.03,-3.86,
17:41:56:188,3.90,5.68,3.80,-2.37,-1.03,-3.86,
17:41:56:192,3.90,5.68,3.80,-2.29,-1.05,-3.99,
17:41:56:193,4.72,5.37,3.68,-2.29,-1.05,-3.99,
17:41:56:198,4.72,5.37,3.68,-2.20,-1.08,-4.13,
17:41:56:198,5.47,5.15,3.35,-2.20,-1.08,-4.13,
17:41:56:203,6.30,5.05,2.93,-2.20,-1.08,-4.13,
17:41:56:204,6.30,5.05,2.93,-2.12,-1.13,-4.28,
17:41:56:207,6.30,5.05,2.93,-2.03,-1.18,-4.44,
17:41:56:208,7.19,5.09,2.68,-2.03,-1.18,-4.44,
17:41:56:212,7.19,5.09,2.68,-1.91,-1.24,-4.58,
17:41:56:213,8.15,5.18,2.59,-1.91,-1.24,-4.58,
17:41:56:217,9.68,5.17,2.33,-1.91,-1.24,-4.58,
17:41:56:218,9.68,5.17,2.33,-1.74,-1.31,-4.69,
17:41:56:224,11.74,5.16,1.46,-1.74,-1.31,-4.69,
17:41:56:225,11.74,5.16,1.46,-1.52,-1.40,-4.79,
17:41:56:227,11.74,5.16,1.46,-1.27,-1.49,-4.87,
17:41:56:227,13.75,5.23,0.19,-1.27,-1.49,-4.87,
17:41:56:234,13.75,5.23,0.19,-1.01,-1.55,-4.95,
17:41:56:235,15.55,5.25,-1.83,-1.01,-1.55,-4.95,
17:41:56:236,17.32,5.17,-4.15,-1.01,-1.55,-4.95,
17:41:56:237,17.32,5.17,-4.15,-0.77,-1.54,-5.00,
17:41:56:243,17.32,5.17,-4.15,-0.55,-1.43,-5.04,
17:41:56:244,18.97,5.07,-6.57,-0.55,-1.43,-5.04,
17:41:56:246,18.97,5.07,-6.57,-0.36,-1.24,-5.06,
17:41:56:247,20.82,4.53,-9.15,-0.36,-1.24,-5.06,
17:41:56:291,20.82,4.53,-9.15,-0.23,-1.03,-5.08,
17:41:56:292,23.09,3.26,-11.71,-0.23,-1.03,-5.08,
17:41:56:294,23.09,3.26,-11.71,-0.16,-0.83,-5.12,
17:41:56:295,24.86,1.54,-13.94,-0.16,-0.83,-5.12,
17:41:56:296,25.80,-0.06,-14.97,-0.16,-0.83,-5.12,
17:41:56:296,25.80,-0.06,-14.97,-0.18,-0.70,-5.15,
17:41:56:297,25.24,-0.89,-17.29,-0.18,-0.70,-5.15,
17:41:56:297,25.24,-0.89,-17.29,-0.24,-0.58,-5.17,
17:41:56:298,25.24,-0.89,-17.29,-0.33,-0.32,-5.14,
17:41:56:299,24.50,-0.97,-17.81,-0.33,-0.32,-5.14,
17:41:56:300,24.50,-0.97,-17.81,-0.49,-0.07,-5.07,
17:41:56:300,24.41,-1.84,-17.95,-0.49,-0.07,-5.07,
17:41:56:301,24.41,-1.84,-17.95,-0.72,0.13,-4.96,
17:41:56:301,24.35,-3.28,-17.93,-0.72,0.13,-4.96,
17:41:56:302,24.35,-3.28,-17.93,-1.00,0.37,-4.84,
17:41:56:303,24.04,-4.74,-17.79,-1.00,0.37,-4.84,
17:41:56:303,24.04,-4.74,-17.79,-1.31,0.73,-4.70,
17:41:56:304,23.26,-6.04,-17.20,-1.31,0.73,-4.70,
17:41:56:305,23.26,-6.04,-17.20,-1.65,1.20,-4.55,
17:41:56:305,22.07,-7.06,-15.99,-1.65,1.20,-4.55,
17:41:56:306,19.92,-7.74,-13.70,-1.65,1.20,-4.55,
17:41:56:307,19.92,-7.74,-13.70,-1.99,1.80,-4.36,
17:41:56:307,19.92,-7.74,-13.70,-2.28,2.51,-4.12,
17:41:56:307,18.40,-8.61,-10.78,-2.28,2.51,-4.12,
17:41:56:309,18.40,-8.61,-10.78,-2.51,3.29,-3.86,
17:41:56:310,15.49,-8.96,-6.89,-2.51,3.29,-3.86,
17:41:56:314,15.49,-8.96,-6.89,-2.61,4.11,-3.56,
17:41:56:315,15.44,-10.51,-3.05,-2.61,4.11,-3.56,
17:41:56:319,15.44,-10.51,-3.05,-2.60,4.94,-3.42,
17:41:56:319,14.57,-11.87,0.80,-2.60,4.94,-3.42,
17:41:56:324,14.57,-11.87,0.80,-2.46,5.72,-3.33,
17:41:56:324,12.24,-11.71,5.34,-2.46,5.72,-3.33,
17:41:56:328,10.93,-11.70,9.70,-2.46,5.72,-3.33,
17:41:56:329,10.93,-11.70,9.70,-2.14,6.35,-3.18,
17:41:56:333,10.93,-11.70,9.70,-1.69,6.81,-3.06,
17:41:56:334,10.11,-12.23,13.03,-1.69,6.81,-3.06,
17:41:56:338,10.11,-12.23,13.03,-1.11,7.13,-3.00,
17:41:56:339,8.46,-12.92,16.10,-1.11,7.13,-3.00,
17:41:56:343,8.46,-12.92,16.10,-0.43,7.29,-2.93,
17:41:56:343,6.53,-13.68,18.62,-0.43,7.29,-2.93,
17:41:56:349,5.10,-15.73,19.17,-0.43,7.29,-2.93,
17:41:56:350,5.10,-15.73,19.17,0.31,7.25,-2.83,
17:41:56:354,5.10,-15.73,19.17,1.04,7.02,-2.64,
17:41:56:356,-1.04,-13.84,23.63,1.04,7.02,-2.64,
17:41:56:358,-1.04,-13.84,23.63,1.96,6.70,-2.28,
17:41:56:359,-0.16,-15.14,26.46,1.96,6.70,-2.28,
17:41:56:364,-0.16,-15.14,26.46,2.91,6.26,-2.19,
17:41:56:366,-0.57,-17.29,26.70,2.91,6.26,-2.19,
17:41:56:368,-0.57,-17.29,26.70,3.83,5.64,-2.18,
17:41:56:370,-3.11,-18.90,25.97,3.83,5.64,-2.18,
17:41:56:373,-3.11,-18.90,25.97,4.68,4.81,-2.04,
17:41:56:374,-3.27,-21.01,23.37,4.68,4.81,-2.04,
17:41:56:378,-3.21,-22.24,20.90,4.68,4.81,-2.04,
17:41:56:379,-3.21,-22.24,20.90,5.35,3.90,-1.92,
17:41:56:383,-3.80,-22.66,18.06,5.35,3.90,-1.92,
17:41:56:384,-3.80,-22.66,18.06,5.90,3.10,-1.90,
17:41:56:387,-4.46,-23.16,14.19,5.90,3.10,-1.90,
17:41:56:388,-4.46,-23.16,14.19,6.36,2.46,-1.94,
17:41:56:392,-5.42,-23.47,9.90,6.36,2.46,-1.94,
17:41:56:393,-5.42,-23.47,9.90,6.65,1.97,-1.97,
17:41:56:397,-6.08,-23.57,5.51,6.65,1.97,-1.97,
17:41:56:398,-6.08,-23.57,5.51,6.75,1.64,-2.00,
17:41:56:402,-6.08,-23.57,5.51,6.64,1.46,-2.02,
17:41:56:403,-7.72,-22.57,2.14,6.64,1.46,-2.02,
17:41:56:407,-7.72,-22.57,2.14,6.40,1.44,-2.00,
17:41:56:408,-9.65,-20.90,-0.17,6.40,1.44,-2.00,
17:41:56:413,-11.34,-19.68,-1.70,6.40,1.44,-2.00,
17:41:56:418,-11.34,-19.68,-1.70,6.07,1.57,-1.93,
17:41:56:421,-11.34,-19.68,-1.70,5.68,1.81,-1.81,
17:41:56:426,-12.54,-18.85,-3.11,5.68,1.81,-1.81,
17:41:56:427,-12.54,-18.85,-3.11,5.23,2.13,-1.65,
17:41:56:428,-13.93,-18.16,-3.68,5.23,2.13,-1.65,
17:41:56:428,-15.08,-17.63,-3.89,5.23,2.13,-1.65,
17:41:56:429,-15.08,-17.63,-3.89,4.75,2.47,-1.43,
17:41:56:431,-16.37,-16.93,-3.28,4.75,2.47,-1.43,
17:41:56:432,-16.37,-16.93,-3.28,4.25,2.80,-1.18,
17:41:56:436,-16.37,-16.93,-3.28,3.77,3.10,-0.90,
17:41:56:438,-17.60,-16.24,-2.06,3.77,3.10,-0.90,
17:41:56:443,-17.60,-16.24,-2.06,3.34,3.32,-0.61,
17:41:56:444,-18.47,-15.85,-0.54,3.34,3.32,-0.61,
17:41:56:450,-18.47,-15.85,-0.54,2.98,3.43,-0.31,
17:41:56:451,-19.03,-15.71,0.98,2.98,3.43,-0.31,
17:41:56:453,-19.47,-15.56,2.40,2.98,3.43,-0.31,
17:41:56:453,-19.47,-15.56,2.40,2.68,3.41,-0.01,
17:41:56:457,-19.76,-15.63,3.46,2.68,3.41,-0.01,
17:41:56:459,-19.76,-15.63,3.46,2.44,3.27,0.29,
17:41:56:460,-20.15,-15.59,4.00,2.44,3.27,0.29,
17:41:56:461,-20.15,-15.59,4.00,2.25,3.03,0.58,
17:41:56:465,-20.57,-15.45,4.27,2.25,3.03,0.58,
17:41:56:466,-20.57,-15.45,4.27,2.08,2.71,0.89,
17:41:56:470,-20.57,-15.45,4.27,1.92,2.35,1.22,
17:41:56:471,-20.96,-15.25,4.21,1.92,2.35,1.22,
17:41:56:475,-20.96,-15.25,4.21,1.77,1.98,1.58,
17:41:56:476,-21.20,-15.26,3.82,1.77,1.98,1.58,
17:41:56:480,-21.27,-15.16,3.00,1.77,1.98,1.58,
17:41:56:481,-21.27,-15.16,3.00,1.60,1.63,1.99,
17:41:56:484,-21.09,-14.95,2.20,1.60,1.63,1.99,
17:41:56:485,-21.09,-14.95,2.20,1.40,1.33,2.43,
17:41:56:489,-20.45,-14.60,1.49,1.40,1.33,2.43,
17:41:56:491,-20.45,-14.60,1.49,1.16,1.07,2.92,
17:41:56:533,-19.03,-14.41,1.07,1.16,1.07,2.92,
17:41:56:534,-19.03,-14.41,1.07,0.88,0.80,3.43,
17:41:56:534,-16.74,-14.48,0.98,0.88,0.80,3.43,
17:41:56:535,-16.74,-14.48,0.98,0.58,0.53,3.93,
17:41:56:536,-13.77,-14.71,1.01,0.58,0.53,3.93,
17:41:56:536,-13.77,-14.71,1.01,0.28,0.25,4.39,
17:41:56:537,-13.77,-14.71,1.01,0.00,-0.02,4.76,
17:41:56:538,-10.70,-14.93,1.11,0.00,-0.02,4.76,
17:41:56:540,-10.70,-14.93,1.11,-0.26,-0.28,5.06,
17:41:56:542,-7.67,-15.06,1.03,-0.26,-0.28,5.06,
17:41:56:543,-7.67,-15.06,1.03,-0.49,-0.51,5.29,
17:41:56:543,-4.61,-15.03,0.98,-0.49,-0.51,5.29,
17:41:56:544,-4.61,-15.03,0.98,-0.69,-0.70,5.45,
17:41:56:544,-1.56,-14.96,0.73,-0.69,-0.70,5.45,
17:41:56:544,-1.56,-14.96,0.73,-0.87,-0.89,5.54,
17:41:56:545,1.17,-14.73,0.24,-0.87,-0.89,5.54,
17:41:56:545,1.17,-14.73,0.24,-1.02,-1.07,5.59,
17:41:56:547,4.17,-14.39,-0.83,-1.02,-1.07,5.59,
17:41:56:547,4.17,-14.39,-0.83,-1.20,-1.25,5.55,
17:41:56:547,7.04,-13.85,-2.40,-1.20,-1.25,5.55,
17:41:56:548,7.04,-13.85,-2.40,-1.43,-1.45,5.45,
17:41:56:548,8.94,-13.20,-4.45,-1.43,-1.45,5.45,
17:41:56:549,8.94,-13.20,-4.45,-1.73,-1.66,5.35,
17:41:56:549,10.80,-12.55,-6.70,-1.73,-1.66,5.35,
17:41:56:552,12.90,-12.29,-8.78,-1.73,-1.66,5.35,
17:41:56:552,12.90,-12.29,-8.78,-2.09,-1.82,5.28,
17:41:56:557,15.16,-12.13,-10.53,-2.09,-1.82,5.28,
17:41:56:558,15.16,-12.13,-10.53,-2.48,-1.88,5.22,
17:41:56:561,15.16,-12.13,-10.53,-2.86,-1.83,5.18,
17:41:56:562,17.29,-11.54,-11.64,-2.86,-1.83,5.18,
17:41:56:567,17.29,-11.54,-11.64,-3.19,-1.67,5.18,
17:41:56:567,19.12,-10.45,-11.97,-3.19,-1.67,5.18,
17:41:56:571,19.70,-9.17,-11.71,-3.19,-1.67,5.18,
17:41:56:572,19.70,-9.17,-11.71,-3.45,-1.41,5.26,
17:41:56:576,23.03,-7.92,-11.31,-3.45,-1.41,5.26,
17:41:56:577,23.03,-7.92,-11.31,-3.60,-1.08,5.44,
17:41:56:582,26.45,-6.91,-10.83,-3.60,-1.08,5.44,
17:41:56:583,26.45,-6.91,-10.83,-3.65,-0.72,5.52,
17:41:56:586,29.74,-6.19,-10.96,-3.65,-0.72,5.52,
17:41:56:586,29.74,-6.19,-10.96,-3.64,-0.47,5.49,
17:41:56:591,29.74,-6.19,-10.96,-3.60,-0.38,5.37,
17:41:56:593,33.66,-6.01,-10.19,-3.60,-0.38,5.37,
17:41:56:596,33.71,-5.96,-10.03,-3.60,-0.38,5.37,
17:41:56:597,33.71,-5.96,-10.03,-3.49,-0.43,5.11,
17:41:56:600,33.77,-5.45,-10.29,-3.49,-0.43,5.11,
17:41:56:601,33.77,-5.45,-10.29,-3.32,-0.55,4.71,
17:41:56:605,33.82,-4.25,-10.96,-3.32,-0.55,4.71,
17:41:56:606,33.82,-4.25,-10.96,-3.10,-0.67,4.22,
17:41:56:611,33.82,-4.25,-10.96,-2.86,-0.70,3.72,
17:41:56:612,33.86,-2.77,-11.89,-2.86,-0.70,3.72,
17:41:56:616,33.86,-2.77,-11.89,-2.63,-0.63,3.24,
17:41:56:617,33.89,-1.45,-13.11,-2.63,-0.63,3.24,
17:41:56:620,33.89,-1.45,-13.11,-2.46,-0.47,2.78,
17:41:56:621,33.91,-0.25,-14.36,-2.46,-0.47,2.78,
17:41:56:625,33.92,0.86,-15.92,-2.46,-0.47,2.78,
17:41:56:627,33.92,0.86,-15.92,-2.38,-0.22,2.31,
17:41:56:630,30.07,1.81,-17.19,-2.38,-0.22,2.31,
17:41:56:632,30.07,1.81,-17.19,-2.42,0.07,1.84,
17:41:56:636,30.07,1.81,-17.19,-2.60,0.39,1.43,
17:41:56:637,25.28,2.74,-17.49,-2.60,0.39,1.43,
17:41:56:643,20.16,3.57,-16.99,-2.60,0.39,1.43,
17:41:56:645,20.16,3.57,-16.99,-2.88,0.71,1.11,
17:41:56:646,20.16,3.57,-16.99,-3.23,1.03,0.90,
17:41:56:647,14.92,3.88,-16.37,-3.23,1.03,0.90,
17:41:56:650,10.52,2.51,-16.98,-3.23,1.03,0.90,
17:41:56:651,10.52,2.51,-16.98,-3.64,1.37,0.82,
17:41:56:654,10.52,2.51,-16.98,-4.17,1.59,0.83,
17:41:56:655,6.24,2.60,-14.12,-4.17,1.59,0.83,
17:41:56:660,6.24,2.60,-14.12,-4.61,1.89,0.91,
17:41:56:661,1.99,4.05,-9.74,-4.61,1.89,0.91,
17:41:56:665,-1.44,4.67,-6.51,-4.61,1.89,0.91,
17:41:56:666,-1.44,4.67,-6.51,-4.90,2.19,1.05,
17:41:56:669,-1.44,4.67,-6.51,-5.08,2.40,1.26,
17:41:56:670,-4.25,4.30,-3.99,-5.08,2.40,1.26,
17:41:56:676,-5.97,3.75,-0.81,-5.08,2.40,1.26,
17:41:56:678,-5.97,3.75,-0.81,-5.18,2.54,1.52,
17:41:56:680,-5.97,3.75,-0.81,-5.21,2.61,1.79,
17:41:56:681,-6.49,3.04,2.10,-5.21,2.61,1.79,
17:41:56:684,-6.49,3.04,2.10,-5.14,2.62,2.01,
17:41:56:685,-6.35,2.51,5.43,-5.14,2.62,2.01,
17:41:56:688,-5.52,1.73,8.33,-5.14,2.62,2.01,
17:41:56:689,-5.52,1.73,8.33,-4.98,2.57,2.17,
17:41:56:693,-5.52,1.73,8.33,-4.71,2.47,2.24,
17:41:56:695,-5.46,1.80,10.79,-4.71,2.47,2.24,
17:41:56:698,-5.05,2.29,13.62,-4.71,2.47,2.24,
17:41:56:699,-5.05,2.29,13.62,-4.36,2.34,2.26,
17:41:56:703,-4.27,3.16,16.35,-4.36,2.34,2.26,
17:41:56:704,-4.27,3.16,16.35,-3.90,2.22,2.19,
17:41:56:709,-3.79,4.11,18.76,-3.90,2.22,2.19,
17:41:56:710,-3.79,4.11,18.76,-3.28,2.14,2.01,
17:41:56:712,-4.15,4.85,19.85,-3.28,2.14,2.01,
17:41:56:714,-4.15,4.85,19.85,-2.52,2.07,1.76,
17:41:56:717,-4.74,4.96,20.19,-2.52,2.07,1.76,
17:41:56:719,-4.74,4.96,20.19,-1.72,1.93,1.51,
17:41:56:722,-5.07,4.22,19.39,-1.72,1.93,1.51,
17:41:56:723,-5.07,4.22,19.39,-0.96,1.60,1.30,
17:41:56:727,-5.08,3.48,18.05,-0.96,1.60,1.30,
17:41:56:729,-5.08,3.48,18.05,-0.33,1.05,1.11,
17:41:56:736,-5.08,3.48,18.05,0.18,0.34,0.90,
17:41:56:738,-4.75,3.63,16.12,0.18,0.34,0.90,
17:41:56:787,-4.71,4.26,13.92,0.18,0.34,0.90,
17:41:56:787,-4.71,4.26,13.92,0.58,-0.44,0.63,
17:41:56:790,-5.39,5.14,11.71,0.58,-0.44,0.63,
17:41:56:792,-5.39,5.14,11.71,0.89,-1.23,0.31,
17:41:56:793,-5.39,5.14,11.71,1.13,-1.96,0.00,
17:41:56:794,-6.32,5.79,9.25,1.13,-1.96,0.00,
17:41:56:795,-7.08,6.47,7.02,1.13,-1.96,0.00,
17:41:56:796,-7.08,6.47,7.02,1.30,-2.56,-0.25,
17:41:56:797,-7.08,6.47,7.02,1.44,-2.98,-0.46,
17:41:56:797,-7.07,7.12,5.32,1.44,-2.98,-0.46,
17:41:56:798,-6.79,7.82,2.79,1.44,-2.98,-0.46,
17:41:56:799,-6.79,7.82,2.79,1.54,-3.26,-0.64,
17:41:56:800,-6.26,8.27,0.62,1.54,-3.26,-0.64,
17:41:56:800,-6.26,8.27,0.62,1.56,-3.44,-0.83,
17:41:56:801,-6.81,9.21,-3.15,1.56,-3.44,-0.83,
17:41:56:801,-6.81,9.21,-3.15,1.43,-3.50,-1.05,
17:41:56:802,-7.84,10.54,-5.75,1.43,-3.50,-1.05,
17:41:56:803,-7.84,10.54,-5.75,1.17,-3.31,-1.26,
17:41:56:804,-7.84,10.54,-5.75,0.82,-2.89,-1.42,
17:41:56:805,-9.06,12.00,-7.10,0.82,-2.89,-1.42,
17:41:56:806,-9.06,12.00,-7.10,0.43,-2.33,-1.52,
17:41:56:808,-10.38,13.49,-7.28,0.43,-2.33,-1.52,
17:41:56:810,-10.38,13.49,-7.28,0.04,-1.69,-1.55,
17:41:56:811,-11.29,14.80,-6.65,0.04,-1.69,-1.55,
17:41:56:812,-11.29,14.80,-6.65,-0.32,-1.08,-1.51,
17:41:56:813,-11.84,15.81,-5.57,-0.32,-1.08,-1.51,
17:41:56:815,-12.12,16.50,-4.16,-0.32,-1.08,-1.51,
17:41:56:816,-12.12,16.50,-4.16,-0.63,-0.55,-1.43,
17:41:56:817,-12.12,16.50,-4.16,-0.86,-0.08,-1.34,
17:41:56:818,-12.05,16.80,-2.59,-0.86,-0.08,-1.34,
17:41:56:818,-11.56,16.81,-1.24,-0.86,-0.08,-1.34,
17:41:56:819,-11.56,16.81,-1.24,-1.03,0.28,-1.27,
17:41:56:819,-10.14,15.86,-0.15,-1.03,0.28,-1.27,
17:41:56:820,-10.14,15.86,-0.15,-1.14,0.53,-1.24,
17:41:56:820,-7.90,14.24,0.62,-1.14,0.53,-1.24,
17:41:56:821,-7.90,14.24,0.62,-1.24,0.63,-1.30,
17:41:56:824,-7.90,14.24,0.62,-1.36,0.57,-1.51,
17:41:56:825,-5.96,13.06,1.06,-1.36,0.57,-1.51,
17:41:56:829,-5.96,13.06,1.06,-1.46,0.39,-1.80,
17:41:56:829,-4.45,12.65,1.84,-1.46,0.39,-1.80,
17:41:56:833,-4.45,12.65,1.84,-1.54,0.15,-2.14,
17:41:56:834,-3.53,12.50,2.53,-1.54,0.15,-2.14,
17:41:56:839,-3.53,12.50,2.53,-1.58,-0.10,-2.51,
17:41:56:840,-2.98,12.17,2.90,-1.58,-0.10,-2.51,
17:41:56:843,-2.65,11.70,2.78,-1.58,-0.10,-2.51,
17:41:56:844,-2.65,11.70,2.78,-1.61,-0.36,-2.87,
17:41:56:848,-2.51,11.23,2.43,-1.61,-0.36,-2.87,
17:41:56:849,-2.51,11.23,2.43,-1.64,-0.59,-3.20,
17:41:56:853,-2.67,10.87,2.09,-1.64,-0.59,-3.20,
17:41:56:853,-2.67,10.87,2.09,-1.69,-0.77,-3.49,
17:41:56:858,-2.67,10.87,2.09,-1.75,-0.89,-3.72,
17:41:56:859,-2.97,10.62,1.87,-1.75,-0.89,-3.72,
17:41:56:863,-3.11,10.44,1.73,-1.75,-0.89,-3.72,
17:41:56:864,-3.11,10.44,1.73,-1.80,-0.95,-3.87,
17:41:56:867,-2.73,10.01,1.81,-1.80,-0.95,-3.87,
17:41:56:868,-2.73,10.01,1.81,-1.84,-0.92,-3.96,
17:41:56:873,-1.75,9.36,2.27,-1.84,-0.92,-3.96,
17:41:56:874,-1.75,9.36,2.27,-1.86,-0.81,-4.00,
17:41:56:878,-0.17,8.59,2.78,-1.86,-0.81,-4.00,
17:41:56:880,-0.17,8.59,2.78,-1.87,-0.64,-4.02,
17:41:56:883,-0.17,8.59,2.78,-1.83,-0.39,-4.05,
17:41:56:884,1.73,7.81,3.39,-1.83,-0.39,-4.05,
17:41:56:887,1.73,7.81,3.39,-1.75,-0.08,-4.11,
17:41:56:888,3.71,7.22,4.09,-1.75,-0.08,-4.11,
17:41:56:893,3.71,7.22,4.09,-1.63,0.26,-4.22,
17:41:56:894,5.46,6.78,4.84,-1.63,0.26,-4.22,
17:41:56:897,5.46,6.78,4.84,-1.48,0.60,-4.39,
17:41:56:899,6.74,6.59,5.57,-1.48,0.60,-4.39,
17:41:56:902,6.74,6.59,5.57,-1.32,0.90,-4.58,
17:41:56:903,7.22,6.64,6.20,-1.32,0.90,-4.58,
17:41:56:908,8.27,7.07,6.49,-1.32,0.90,-4.58,
17:41:56:910,8.27,7.07,6.49,-1.16,1.13,-4.74,
17:41:56:911,8.27,7.07,6.49,-1.01,1.30,-4.89,
17:41:56:912,10.38,6.93,6.55,-1.01,1.30,-4.89,
17:41:56:917,11.08,7.72,6.85,-1.01,1.30,-4.89,
17:41:56:919,11.08,7.72,6.85,-0.83,1.48,-5.04,
17:41:56:921,13.83,6.79,6.30,-0.83,1.48,-5.04,
17:41:56:922,13.83,6.79,6.30,-0.62,1.67,-5.15,
17:41:56:927,13.83,6.79,6.30,-0.37,1.96,-5.25,
17:41:56:928,16.31,5.79,6.20,-0.37,1.96,-5.25,
17:41:56:931,16.31,5.79,6.20,-0.08,2.38,-5.35,
17:41:56:932,18.66,5.17,6.48,-0.08,2.38,-5.35,
17:41:56:936,20.71,4.91,6.97,-0.08,2.38,-5.35,
17:41:56:937,20.71,4.91,6.97,0.31,2.97,-5.40,
17:41:56:942,21.72,4.33,7.05,0.31,2.97,-5.40,
17:41:56:944,21.72,4.33,7.05,0.78,3.77,-5.36,
17:41:56:946,23.10,3.81,6.86,0.78,3.77,-5.36,
17:41:56:947,23.10,3.81,6.86,1.28,4.64,-5.21,
17:41:56:951,23.10,3.81,6.86,1.75,5.39,-5.03,
17:41:56:953,23.66,2.90,8.19,1.75,5.39,-5.03,
17:41:56:955,23.15,1.99,10.76,1.75,5.39,-5.03,
17:41:56:957,23.15,1.99,10.76,2.21,5.89,-4.85,
17:41:56:960,23.15,1.99,10.76,2.70,6.19,-4.64,
17:41:56:961,21.84,1.64,14.97,2.70,6.19,-4.64,
17:41:56:966,20.14,1.67,20.68,2.70,6.19,-4.64,
17:41:56:967,20.14,1.67,20.68,3.30,6.33,-4.35,
17:41:56:969,18.77,1.56,26.35,3.30,6.33,-4.35,
17:41:56:970,18.77,1.56,26.35,4.04,6.31,-3.96,
17:41:56:976,18.77,1.56,26.35,4.89,6.06,-3.49,
17:41:56:977,18.24,0.28,31.22,4.89,6.06,-3.49,
17:41:57:025,18.24,0.28,31.22,5.79,5.60,-2.97,
17:41:57:027,18.93,-2.54,34.77,5.79,5.60,-2.97,
17:41:57:028,18.93,-2.54,34.77,6.73,4.99,-2.49,
17:41:57:029,21.87,-7.81,36.50,6.73,4.99,-2.49,
17:41:57:030,21.87,-7.81,36.50,7.69,4.33,-2.18,
17:41:57:030,24.63,-12.69,36.09,7.69,4.33,-2.18,
17:41:57:032,24.63,-12.69,36.09,8.59,3.62,-2.07,
17:41:57:033,26.03,-15.18,33.79,8.59,3.62,-2.07,
17:41:57:034,26.03,-15.18,33.79,9.35,2.77,-2.11,
17:41:57:034,27.18,-17.13,29.21,9.35,2.77,-2.11,
17:41:57:035,27.18,-17.13,29.21,9.88,1.87,-2.31,
17:41:57:037,27.49,-18.94,22.33,9.88,1.87,-2.31,
17:41:57:038,26.83,-20.01,14.08,9.88,1.87,-2.31,
17:41:57:040,26.83,-20.01,14.08,10.11,1.15,-2.65,
17:41:57:042,26.83,-20.01,14.08,10.03,0.75,-3.04,
17:41:57:047,25.42,-20.10,5.84,10.03,0.75,-3.04,
17:41:57:048,25.42,-20.10,5.84,9.67,0.72,-3.43,
17:41:57:049,23.44,-19.47,-1.43,9.67,0.72,-3.43,
17:41:57:050,23.44,-19.47,-1.43,9.07,1.00,-3.76,
17:41:57:050,20.89,-18.66,-7.14,9.07,1.00,-3.76,
17:41:57:051,18.35,-18.13,-11.86,9.07,1.00,-3.76,
17:41:57:052,18.35,-18.13,-11.86,8.31,1.53,-4.01,
17:41:57:052,15.38,-17.26,-14.45,8.31,1.53,-4.01,
17:41:57:053,15.38,-17.26,-14.45,7.46,2.25,-4.20,
17:41:57:053,11.43,-16.37,-15.21,7.46,2.25,-4.20,
17:41:57:054,11.43,-16.37,-15.21,6.61,3.07,-4.31,
17:41:57:055,11.43,-16.37,-15.21,5.80,3.84,-4.34,
17:41:57:055,7.21,-15.74,-15.02,5.80,3.84,-4.34,
17:41:57:056,7.21,-15.74,-15.02,5.04,4.45,-4.27,
17:41:57:058,3.26,-15.22,-13.00,5.04,4.45,-4.27,
17:41:57:058,3.26,-15.22,-13.00,4.40,4.87,-4.14,
17:41:57:059,-0.88,-14.67,-10.43,4.40,4.87,-4.14,
17:41:57:059,-0.88,-14.67,-10.43,3.88,5.07,-3.95,
17:41:57:060,-4.66,-14.33,-7.84,3.88,5.07,-3.95,
17:41:57:061,-4.66,-14.33,-7.84,3.49,5.06,-3.72,
17:41:57:062,-8.37,-13.83,-5.38,3.49,5.06,-3.72,
17:41:57:066,-8.37,-13.83,-5.38,3.21,4.86,-3.42,
17:41:57:067,-12.02,-13.06,-3.29,3.21,4.86,-3.42,
17:41:57:072,-12.02,-13.06,-3.29,3.03,4.49,-3.04,
17:41:57:074,-14.54,-12.45,-1.59,3.03,4.49,-3.04,
17:41:57:076,-14.54,-12.45,-1.59,2.91,3.98,-2.64,
17:41:57:077,-16.71,-12.06,-0.88,2.91,3.98,-2.64,
17:41:57:081,-18.43,-11.80,-0.77,2.91,3.98,-2.64,
17:41:57:082,-18.43,-11.80,-0.77,2.81,3.32,-2.22,
17:41:57:086,-18.43,-11.80,-0.77,2.69,2.56,-1.77,
17:41:57:086,-19.38,-11.65,-1.57,2.69,2.56,-1.77,
17:41:57:091,-19.93,-11.55,-2.35,2.69,2.56,-1.77,
17:41:57:092,-19.93,-11.55,-2.35,2.53,1.75,-1.31,
17:41:57:096,-19.93,-11.55,-2.35,2.34,0.94,-0.83,
17:41:57:097,-20.04,-11.38,-4.01,2.34,0.94,-0.83,
17:41:57:100,-20.04,-11.38,-4.01,2.08,0.27,-0.36,
17:41:57:101,-19.44,-11.23,-5.94,2.08,0.27,-0.36,
17:41:57:106,-19.44,-11.23,-5.94,1.77,-0.20,0.06,
17:41:57:108,-17.76,-11.39,-7.75,1.77,-0.20,0.06,
17:41:57:111,-16.23,-11.71,-9.11,1.77,-0.20,0.06,
17:41:57:112,-16.23,-11.71,-9.11,1.39,-0.49,0.38,
17:41:57:116,-16.23,-11.71,-9.11,0.96,-0.62,0.62,
17:41:57:117,-14.66,-12.04,-10.86,0.96,-0.62,0.62,
17:41:57:120,-14.66,-12.04,-10.86,0.48,-0.53,0.82,
17:41:57:124,-13.26,-12.43,-12.87,0.48,-0.53,0.82,
17:41:57:129,-13.26,-12.43,-12.87,-0.06,-0.33,0.97,
17:41:57:130,-12.02,-12.81,-12.00,-0.06,-0.33,0.97,
17:41:57:131,-11.35,-12.96,-10.75,-0.06,-0.33,0.97,
17:41:57:132,-11.35,-12.96,-10.75,-0.60,-0.21,1.08,
17:41:57:138,-11.35,-12.96,-10.75,-1.12,-0.13,1.16,
17:41:57:140,-11.24,-13.14,-9.57,-1.12,-0.13,1.16,
17:41:57:142,-11.24,-13.14,-9.57,-1.57,-0.08,1.24,
17:41:57:144,-11.34,-13.34,-8.16,-1.57,-0.08,1.24,
17:41:57:145,-11.34,-13.34,-8.16,-1.98,-0.07,1.32,
17:41:57:146,-11.80,-13.59,-7.09,-1.98,-0.07,1.32,
17:41:57:151,-11.80,-13.59,-7.09,-2.35,-0.09,1.45,
17:41:57:154,-12.52,-13.97,-6.19,-2.35,-0.09,1.45,
17:41:57:155,-13.26,-14.42,-5.11,-2.35,-0.09,1.45,
17:41:57:156,-13.26,-14.42,-5.11,-2.70,-0.12,1.63,
17:41:57:159,-13.26,-14.42,-5.11,-3.02,-0.16,1.88,
17:41:57:161,-13.80,-15.05,-3.98,-3.02,-0.16,1.88,
17:41:57:167,-13.80,-15.05,-3.98,-3.31,-0.23,2.17,
17:41:57:168,-14.09,-15.65,-2.75,-3.31,-0.23,2.17,
17:41:57:169,-14.09,-15.65,-2.75,-3.57,-0.32,2.51,
17:41:57:170,-14.15,-16.39,-1.40,-3.57,-0.32,2.51,
17:41:57:174,-13.72,-17.30,0.00,-3.57,-0.32,2.51,
17:41:57:176,-13.72,-17.30,0.00,-3.81,-0.45,2.89,
17:41:57:178,-13.72,-17.30,0.00,-4.00,-0.60,3.28,
17:41:57:179,-12.73,-18.29,1.38,-4.00,-0.60,3.28,
17:41:57:183,-11.48,-19.15,2.87,-4.00,-0.60,3.28,
17:41:57:184,-11.48,-19.15,2.87,-4.17,-0.75,3.66,
17:41:57:188,-11.48,-19.15,2.87,-4.29,-0.90,4.04,
17:41:57:189,-10.42,-19.68,4.78,-4.29,-0.90,4.04,
17:41:57:193,-7.97,-21.06,6.75,-4.29,-0.90,4.04,
17:41:57:194,-7.97,-21.06,6.75,-4.35,-1.04,4.44,
17:41:57:198,-7.97,-21.06,6.75,-4.37,-1.16,4.77,
17:41:57:199,-4.75,-22.72,8.82,-4.37,-1.16,4.77,
17:41:57:202,-1.69,-24.24,11.17,-4.37,-1.16,4.77,
17:41:57:203,-1.69,-24.24,11.17,-4.34,-1.27,4.97,
17:41:57:207,0.92,-25.19,14.00,-4.34,-1.27,4.97,
17:41:57:209,0.92,-25.19,14.00,-4.24,-1.32,5.07,
17:41:57:212,2.94,-25.39,17.08,-4.24,-1.32,5.07,
17:41:57:213,2.94,-25.39,17.08,-4.03,-1.27,5.09,
17:41:57:217,2.94,-25.39,17.08,-3.68,-1.16,5.05,
17:41:57:218,4.02,-25.06,20.18,-3.68,-1.16,5.05,
17:41:57:267,4.02,-25.06,20.18,-3.21,-1.01,5.02,
17:41:57:268,4.67,-24.34,22.32,-3.21,-1.01,5.02,
17:41:57:269,4.67,-24.34,22.32,-2.68,-0.81,4.98,
17:41:57:269,4.96,-23.22,23.68,-2.68,-0.81,4.98,
17:41:57:270,4.96,-23.22,23.68,-2.11,-0.55,4.94,
17:41:57:271,5.10,-21.92,23.84,-2.11,-0.55,4.94,
17:41:57:272,4.98,-20.14,22.71,-2.11,-0.55,4.94,
17:41:57:274,4.98,-20.14,22.71,-1.56,-0.26,4.87,
17:41:57:276,4.98,-20.14,22.71,-1.09,0.07,4.82,
17:41:57:277,4.98,-20.14,22.71,-0.75,0.43,4.80,
17:41:57:278,4.96,-18.47,20.14,-0.75,0.43,4.80,
17:41:57:279,6.28,-17.08,16.67,-0.75,0.43,4.80,
17:41:57:279,8.52,-15.30,12.49,-0.75,0.43,4.80,
17:41:57:280,8.52,-15.30,12.49,-0.58,0.72,4.75,
17:41:57:281,8.52,-15.30,12.49,-0.62,0.95,4.66,
17:41:57:282,10.46,-12.77,6.60,-0.62,0.95,4.66,
17:41:57:282,11.33,-10.36,-0.16,-0.62,0.95,4.66,
17:41:57:283,11.33,-10.36,-0.16,-0.90,1.26,4.57,
17:41:57:283,11.33,-10.36,-0.16,-1.41,1.76,4.55,
17:41:57:284,11.74,-7.88,-5.71,-1.41,1.76,4.55,
17:41:57:284,11.74,-7.88,-5.71,-2.07,2.38,4.64,
17:41:57:285,11.81,-5.04,-8.30,-2.07,2.38,4.64,
17:41:57:285,12.74,-2.14,-8.53,-2.07,2.38,4.64,
17:41:57:286,12.74,-2.14,-8.53,-2.76,2.93,4.88,
17:41:57:288,12.74,-2.14,-8.53,-3.39,3.26,5.19,
17:41:57:290,15.26,-0.32,-7.24,-3.39,3.26,5.19,
17:41:57:293,15.26,-0.32,-7.24,-3.87,3.30,5.51,
17:41:57:295,19.70,0.02,-5.40,-3.87,3.30,5.51,
17:41:57:296,19.70,0.02,-5.40,-4.15,3.02,5.75,
17:41:57:297,25.72,-0.54,-3.48,-4.15,3.02,5.75,
17:41:57:297,25.72,-0.54,-3.48,-4.25,2.47,5.84,
17:41:57:299,31.56,-1.03,-1.11,-4.25,2.47,5.84,
17:41:57:300,31.56,-1.03,-1.11,-4.15,1.67,5.80,
17:41:57:301,31.56,-0.61,-1.24,-4.15,1.67,5.80,
17:41:57:304,31.56,-0.61,-1.24,-3.93,0.83,5.61,
17:41:57:305,31.58,0.31,-1.00,-3.93,0.83,5.61,
17:41:57:310,31.58,0.31,-1.00,-3.60,0.08,5.20,
17:41:57:310,31.62,1.26,-2.88,-3.60,0.08,5.20,
17:41:57:314,31.62,1.26,-2.88,-3.25,-0.43,4.67,
17:41:57:315,31.66,2.07,-5.67,-3.25,-0.43,4.67,
17:41:57:319,31.70,2.91,-9.03,-3.25,-0.43,4.67,
17:41:57:320,31.70,2.91,-9.03,-2.96,-0.65,4.10,
17:41:57:324,31.70,2.91,-9.03,-2.80,-0.58,3.50,
17:41:57:325,31.73,4.02,-12.38,-2.80,-0.58,3.50,
17:41:57:329,31.73,4.02,-12.38,-2.77,-0.22,2.94,
17:41:57:330,31.74,5.31,-15.14,-2.77,-0.22,2.94,
17:41:57:334,31.73,6.35,-16.82,-2.77,-0.22,2.94,
17:41:57:335,31.73,6.35,-16.82,-2.88,0.33,2.44,
17:41:57:339,31.73,6.35,-16.82,-3.12,0.93,2.02,
17:41:57:341,30.40,6.99,-17.76,-3.12,0.93,2.02,
17:41:57:346,30.40,6.99,-17.76,-3.46,1.54,1.67,
17:41:57:347,25.16,7.22,-17.70,-3.46,1.54,1.67,
17:41:57:353,25.16,7.22,-17.70,-3.86,2.13,1.38,
17:41:57:357,20.19,7.19,-16.57,-3.86,2.13,1.38,
17:41:57:360,20.19,7.19,-16.57,-4.27,2.65,1.14,
17:41:57:361,15.74,6.82,-14.44,-4.27,2.65,1.14,
17:41:57:362,15.74,6.82,-14.44,-4.65,3.05,0.93,
17:41:57:363,11.63,6.30,-11.78,-4.65,3.05,0.93,
17:41:57:364,11.63,6.30,-11.78,-4.96,3.34,0.74,
17:41:57:364,7.58,5.79,-8.87,-4.96,3.34,0.74,
17:41:57:367,7.58,5.79,-8.87,-5.20,3.52,0.60,
17:41:57:368,3.52,5.47,-5.70,-5.20,3.52,0.60,
17:41:57:374,3.52,5.47,-5.70,-5.35,3.58,0.50,
17:41:57:376,-0.29,5.42,-2.48,-5.35,3.58,0.50,
17:41:57:377,-0.29,5.42,-2.48,-5.39,3.49,0.45,
17:41:57:378,-3.56,5.55,0.56,-5.39,3.49,0.45,
17:41:57:382,-3.56,5.55,0.56,-5.35,3.27,0.46,
17:41:57:383,-6.21,5.78,3.08,-5.35,3.27,0.46,
17:41:57:386,-8.26,6.08,4.97,-5.35,3.27,0.46,
17:41:57:387,-8.26,6.08,4.97,-5.23,2.95,0.49,
17:41:57:392,-8.26,6.08,4.97,-5.06,2.56,0.54,
17:41:57:393,-9.80,6.47,6.25,-5.06,2.56,0.54,
17:41:57:397,-9.80,6.47,6.25,-4.85,2.13,0.61,
17:41:57:398,-10.83,6.85,7.00,-4.85,2.13,0.61,
17:41:57:401,-11.40,7.15,7.33,-4.85,2.13,0.61,
17:41:57:402,-11.40,7.15,7.33,-4.62,1.70,0.68,
17:41:57:408,-11.56,7.37,7.27,-4.62,1.70,0.68,
17:41:57:411,-11.56,7.37,7.27,-4.38,1.27,0.75,
17:41:57:412,-11.56,7.37,7.27,-4.15,0.87,0.81,
17:41:57:413,-11.44,7.46,7.14,-4.15,0.87,0.81,
17:41:57:416,-11.44,7.46,7.14,-3.93,0.52,0.86,
17:41:57:417,-11.00,7.47,6.92,-3.93,0.52,0.86,
17:41:57:420,-11.00,7.47,6.92,-3.71,0.22,0.90,
17:41:57:422,-10.04,7.52,6.61,-3.71,0.22,0.90,
17:41:57:428,-8.50,7.58,6.38,-3.71,0.22,0.90,
17:41:57:429,-8.50,7.58,6.38,-3.50,-0.06,0.89,
17:41:57:432,-6.13,7.66,5.75,-3.50,-0.06,0.89,
17:41:57:433,-6.13,7.66,5.75,-3.31,-0.35,0.81,
17:41:57:436,-6.13,7.66,5.75,-3.14,-0.71,0.62,
17:41:57:436,-3.73,7.98,5.36,-3.14,-0.71,0.62,
17:41:57:445,-2.46,8.65,5.13,-3.14,-0.71,0.62,
17:41:57:446,-2.46,8.65,5.13,-3.01,-1.17,0.31,
17:41:57:447,-2.46,8.65,5.13,-2.91,-1.73,-0.05,
17:41:57:448,-2.06,9.53,4.65,-2.91,-1.73,-0.05,
17:41:57:450,-2.06,9.53,4.65,-2.87,-2.31,-0.42,
17:41:57:451,-1.44,10.23,3.67,-2.87,-2.31,-0.42,
17:41:57:456,-1.81,10.79,3.02,-2.87,-2.31,-0.42,
17:41:57:458,-1.81,10.79,3.02,-2.88,-2.86,-0.81,
17:41:57:461,-3.02,11.21,2.97,-2.88,-2.86,-0.81,
17:41:57:462,-3.02,11.21,2.97,-2.94,-3.31,-1.18,
17:41:57:518,-3.02,11.21,2.97,-3.01,-3.58,-1.50,
17:41:57:519,-4.32,11.32,3.64,-3.01,-3.58,-1.50,
17:41:57:520,-4.32,11.32,3.64,-3.05,-3.65,-1.75,
17:41:57:520,-5.50,11.09,5.08,-3.05,-3.65,-1.75,
17:41:57:521,-5.50,11.09,5.08,-3.04,-3.59,-1.96,
17:41:57:524,-6.40,10.93,7.18,-3.04,-3.59,-1.96,
17:41:57:527,-6.40,10.93,7.18,-2.96,-3.44,-2.13,
17:41:57:527,-7.24,10.71,9.55,-2.96,-3.44,-2.13,
