
time,ax,ay,az,wx,wy,wz,
17:58:29:316,0.42,-0.10,-2.76,0.20,-0.71,-0.13,
17:58:29:319,0.45,-0.16,-2.85,0.20,-0.71,-0.13,
17:58:29:320,0.45,-0.16,-2.85,0.04,-0.74,-0.13,
17:58:29:320,0.47,-0.15,-2.63,0.04,-0.74,-0.13,
17:58:29:320,0.47,-0.15,-2.63,-0.11,-0.76,-0.14,
17:58:29:321,0.53,-0.03,-2.19,-0.11,-0.76,-0.14,
17:58:29:321,0.53,-0.03,-2.19,-0.24,-0.78,-0.16,
17:58:29:321,0.74,0.11,-1.62,-0.24,-0.78,-0.16,
17:58:29:324,0.74,0.11,-1.62,-0.34,-0.79,-0.18,
17:58:29:325,0.99,0.26,-0.98,-0.34,-0.79,-0.18,
17:58:29:338,0.99,0.26,-0.98,-0.41,-0.82,-0.21,
17:58:29:339,1.09,0.36,-0.31,-0.41,-0.82,-0.21,
17:58:29:339,1.09,0.36,-0.31,-0.46,-0.86,-0.25,
17:58:29:340,1.04,0.36,0.21,-0.46,-0.86,-0.25,
17:58:29:340,1.04,0.36,0.21,-0.49,-0.93,-0.29,
17:58:29:340,0.95,0.44,0.52,-0.49,-0.93,-0.29,
17:58:29:343,0.95,0.44,0.52,-0.51,-0.98,-0.33,
17:58:29:344,1.02,0.55,0.70,-0.51,-0.98,-0.33,
17:58:29:349,1.02,0.55,0.70,-0.50,-1.01,-0.38,
17:58:29:350,1.14,0.62,0.85,-0.50,-1.01,-0.38,
17:58:29:352,1.14,0.62,0.85,-0.48,-1.01,-0.42,
17:58:29:352,1.18,0.61,0.78,-0.48,-1.01,-0.42,
17:58:29:361,1.18,0.61,0.78,-0.47,-0.98,-0.45,
17:58:29:389,1.29,0.55,0.60,-0.47,-0.98,-0.45,
17:58:29:389,1.27,0.49,1.05,-0.47,-0.98,-0.45,
17:58:29:390,1.27,0.49,1.05,-0.48,-0.93,-0.48,
17:58:29:390,1.27,0.49,1.05,-0.47,-0.91,-0.50,
17:58:29:390,0.94,0.57,1.09,-0.47,-0.91,-0.50,
17:58:29:391,0.94,0.57,1.09,-0.43,-0.88,-0.50,
17:58:29:391,0.73,0.74,0.99,-0.43,-0.88,-0.50,
17:58:29:391,0.73,0.74,0.99,-0.37,-0.84,-0.47,
17:58:29:392,0.62,0.88,0.98,-0.37,-0.84,-0.47,
17:58:29:392,0.62,0.88,0.98,-0.31,-0.82,-0.42,
17:58:29:392,0.57,0.92,0.96,-0.31,-0.82,-0.42,
17:58:29:393,0.57,0.92,0.96,-0.25,-0.82,-0.36,
17:58:29:393,0.61,0.89,0.89,-0.25,-0.82,-0.36,
17:58:29:393,0.61,0.89,0.89,-0.19,-0.84,-0.30,
17:58:29:394,0.61,0.82,0.76,-0.19,-0.84,-0.30,
17:58:29:396,0.61,0.82,0.76,-0.14,-0.85,-0.24,
17:58:29:396,0.75,0.75,0.52,-0.14,-0.85,-0.24,
17:58:29:401,0.75,0.75,0.52,-0.08,-0.87,-0.19,
17:58:29:401,0.84,0.70,0.31,-0.08,-0.87,-0.19,
17:58:29:405,0.84,0.70,0.31,-0.03,-0.88,-0.15,
17:58:29:406,0.94,0.66,0.04,-0.03,-0.88,-0.15,
17:58:29:413,0.94,0.66,0.04,0.02,-0.87,-0.12,
17:58:29:413,1.09,0.66,-0.25,0.02,-0.87,-0.12,
17:58:29:417,1.09,0.66,-0.25,0.06,-0.85,-0.10,
17:58:29:418,1.27,0.66,-0.50,0.06,-0.85,-0.10,
17:58:29:419,1.27,0.66,-0.50,0.09,-0.82,-0.10,
17:58:29:420,1.42,0.71,-0.65,0.09,-0.82,-0.10,
17:58:29:426,1.42,0.71,-0.65,0.10,-0.79,-0.11,
17:58:29:426,1.57,0.77,-0.84,0.10,-0.79,-0.11,
17:58:29:441,1.57,0.77,-0.84,0.11,-0.75,-0.12,
17:58:29:442,1.73,0.84,-0.92,0.11,-0.75,-0.12,
17:58:29:442,1.73,0.84,-0.92,0.10,-0.71,-0.15,
17:58:29:442,1.84,0.94,-0.87,0.10,-0.71,-0.15,
17:58:29:443,1.84,0.94,-0.87,0.10,-0.68,-0.19,
17:58:29:443,1.94,1.01,-0.76,0.10,-0.68,-0.19,
17:58:29:445,1.99,1.06,-0.73,0.10,-0.68,-0.19,
17:58:29:446,1.99,1.06,-0.73,0.08,-0.66,-0.23,
17:58:29:450,1.99,1.06,-0.73,0.07,-0.64,-0.28,
17:58:29:451,2.03,1.10,-0.83,0.07,-0.64,-0.28,
17:58:29:454,2.03,1.10,-0.83,0.05,-0.60,-0.34,
17:58:29:455,2.03,1.15,-0.87,0.05,-0.60,-0.34,
17:58:29:459,2.03,1.15,-0.87,0.03,-0.55,-0.40,
17:58:29:459,2.01,1.18,-0.82,0.03,-0.55,-0.40,
17:58:29:478,2.01,1.18,-0.82,0.01,-0.51,-0.47,
17:58:29:479,1.90,1.16,-0.73,0.01,-0.51,-0.47,
17:58:29:479,1.90,1.16,-0.73,-0.01,-0.48,-0.53,
17:58:29:479,1.70,1.14,-0.67,-0.01,-0.48,-0.53,
17:58:29:480,1.57,1.12,-0.76,-0.01,-0.48,-0.53,
17:58:29:480,1.57,1.12,-0.76,-0.03,-0.45,-0.58,
17:58:29:480,1.45,1.07,-0.92,-0.03,-0.45,-0.58,
17:58:29:480,1.45,1.07,-0.92,-0.05,-0.42,-0.63,
17:58:29:491,1.45,1.07,-0.92,-0.07,-0.38,-0.67,
17:58:29:492,1.45,1.07,-0.92,-0.08,-0.34,-0.70,
17:58:29:492,1.27,1.04,-0.98,-0.08,-0.34,-0.70,
17:58:29:493,1.00,1.01,-0.96,-0.08,-0.34,-0.70,
17:58:29:493,0.74,1.00,-0.88,-0.08,-0.34,-0.70,
17:58:29:493,0.74,1.00,-0.88,-0.11,-0.34,-0.71,
17:58:29:505,0.74,1.00,-0.88,-0.13,-0.35,-0.71,
17:58:29:506,0.51,1.01,-0.83,-0.13,-0.35,-0.71,
17:58:29:506,0.36,1.05,-0.81,-0.13,-0.35,-0.71,
17:58:29:507,0.36,1.05,-0.81,-0.15,-0.38,-0.69,
17:58:29:527,0.29,1.08,-0.90,-0.15,-0.38,-0.69,
17:58:29:528,0.29,1.08,-0.90,-0.16,-0.41,-0.66,
17:58:29:528,0.27,1.12,-0.92,-0.16,-0.41,-0.66,
17:58:29:529,0.27,1.12,-0.92,-0.18,-0.43,-0.62,
17:58:29:529,0.27,1.12,-0.92,-0.19,-0.45,-0.58,
17:58:29:530,0.28,1.15,-0.93,-0.19,-0.45,-0.58,
17:58:29:530,0.31,1.14,-0.96,-0.19,-0.45,-0.58,
17:58:29:530,0.31,1.14,-0.96,-0.21,-0.46,-0.54,
17:58:29:531,0.37,1.11,-0.97,-0.21,-0.46,-0.54,
17:58:29:531,0.37,1.11,-0.97,-0.23,-0.47,-0.49,
17:58:29:532,0.37,1.11,-0.97,-0.26,-0.48,-0.45,
17:58:29:532,0.44,1.11,-0.92,-0.26,-0.48,-0.45,
17:58:29:536,0.48,1.11,-0.96,-0.26,-0.48,-0.45,
17:58:29:537,0.48,1.11,-0.96,-0.29,-0.50,-0.42,
17:58:29:541,0.52,1.13,-1.03,-0.29,-0.50,-0.42,
17:58:29:542,0.52,1.13,-1.03,-0.32,-0.51,-0.39,
17:58:29:546,0.56,1.17,-1.06,-0.32,-0.51,-0.39,
17:58:29:546,0.56,1.17,-1.06,-0.36,-0.50,-0.37,
17:58:29:551,0.60,1.18,-1.06,-0.36,-0.50,-0.37,
17:58:29:552,0.60,1.18,-1.06,-0.40,-0.47,-0.36,
17:58:29:557,0.67,1.17,-0.99,-0.40,-0.47,-0.36,
17:58:29:557,0.67,1.17,-0.99,-0.45,-0.43,-0.35,
17:58:29:561,0.65,1.18,-0.73,-0.45,-0.43,-0.35,
17:58:29:562,0.65,1.18,-0.73,-0.49,-0.38,-0.34,
17:58:29:572,0.59,1.20,-0.48,-0.49,-0.38,-0.34,
17:58:29:573,0.59,1.20,-0.48,-0.52,-0.37,-0.33,
17:58:29:573,0.59,1.20,-0.48,-0.55,-0.37,-0.32,
17:58:29:573,0.71,1.11,-0.31,-0.55,-0.37,-0.32,
17:58:29:576,0.71,1.11,-0.31,-0.59,-0.40,-0.32,
17:58:29:577,1.16,0.81,-0.18,-0.59,-0.40,-0.32,
17:58:29:613,0.76,0.90,0.40,-0.59,-0.40,-0.32,
17:58:29:614,0.76,0.90,0.40,-0.64,-0.48,-0.33,
17:58:29:614,0.76,0.90,0.40,-0.67,-0.57,-0.35,
17:58:29:614,0.58,0.97,0.38,-0.67,-0.57,-0.35,
17:58:29:615,0.52,1.10,-0.18,-0.67,-0.57,-0.35,
17:58:29:615,0.52,1.10,-0.18,-0.70,-0.62,-0.36,
17:58:29:615,0.52,1.10,-0.18,-0.73,-0.60,-0.35,
17:58:29:616,0.29,1.27,-0.16,-0.73,-0.60,-0.35,
17:58:29:616,0.29,1.27,-0.16,-0.76,-0.57,-0.33,
17:58:29:616,0.04,1.35,0.18,-0.76,-0.57,-0.33,
17:58:29:617,0.04,1.35,0.18,-0.78,-0.55,-0.29,
17:58:29:617,-0.13,1.37,0.43,-0.78,-0.55,-0.29,
17:58:29:617,-0.13,1.37,0.43,-0.81,-0.54,-0.23,
17:58:29:618,-0.28,1.32,0.57,-0.81,-0.54,-0.23,
17:58:29:619,-0.28,1.32,0.57,-0.84,-0.55,-0.15,
17:58:29:619,-0.41,1.19,0.67,-0.84,-0.55,-0.15,
17:58:29:620,-0.41,1.19,0.67,-0.87,-0.56,-0.07,
17:58:29:620,-0.47,1.05,0.83,-0.87,-0.56,-0.07,
17:58:29:626,-0.35,0.96,1.20,-0.87,-0.56,-0.07,
17:58:29:627,-0.35,0.96,1.20,-0.90,-0.59,0.02,
17:58:29:640,-0.18,0.94,1.51,-0.90,-0.59,0.02,
17:58:29:640,-0.18,0.94,1.51,-0.93,-0.65,0.11,
17:58:29:641,-0.18,0.94,1.51,-0.96,-0.74,0.19,
17:58:29:641,-0.10,0.96,1.62,-0.96,-0.74,0.19,
17:58:29:641,-0.07,1.00,1.69,-0.96,-0.74,0.19,
17:58:29:642,-0.07,1.00,1.69,-0.98,-0.83,0.27,
17:58:29:644,-0.10,0.98,1.63,-0.98,-0.83,0.27,
17:58:29:645,-0.10,0.98,1.63,-0.99,-0.90,0.34,
17:58:29:657,-0.08,1.02,1.86,-0.99,-0.90,0.34,
17:58:29:658,-0.08,1.02,1.86,-0.99,-0.94,0.40,
17:58:29:658,-0.07,0.96,1.76,-0.99,-0.94,0.40,
17:58:29:658,-0.07,0.96,1.76,-0.97,-0.96,0.45,
17:58:29:658,-0.02,0.95,1.68,-0.97,-0.96,0.45,
17:58:29:659,-0.02,0.95,1.68,-0.94,-0.95,0.49,
17:58:29:698,0.06,0.87,1.76,-0.94,-0.95,0.49,
17:58:29:699,0.06,0.87,1.76,-0.89,-0.91,0.54,
17:58:29:700,0.05,0.61,1.82,-0.89,-0.91,0.54,
17:58:29:700,0.05,0.61,1.82,-0.84,-0.86,0.58,
17:58:29:700,0.06,0.38,2.26,-0.84,-0.86,0.58,
17:58:29:700,0.06,0.38,2.26,-0.79,-0.81,0.63,
17:58:29:701,0.01,0.22,2.49,-0.79,-0.81,0.63,
17:58:29:701,0.01,0.22,2.49,-0.73,-0.81,0.67,
17:58:29:701,0.01,0.08,2.68,-0.73,-0.81,0.67,
17:58:29:702,0.01,0.08,2.68,-0.65,-0.81,0.71,
17:58:29:702,0.01,0.08,2.68,-0.56,-0.82,0.76,
17:58:29:702,0.09,-0.04,2.96,-0.56,-0.82,0.76,
17:58:29:703,0.09,-0.04,2.96,-0.47,-0.83,0.79,
17:58:29:703,0.13,-0.13,3.24,-0.47,-0.83,0.79,
17:58:29:703,0.15,-0.23,3.46,-0.47,-0.83,0.79,
17:58:29:704,0.15,-0.23,3.46,-0.37,-0.86,0.81,
17:58:29:704,0.15,-0.23,3.46,-0.26,-0.91,0.83,
17:58:29:704,0.12,-0.37,3.65,-0.26,-0.91,0.83,
17:58:29:707,0.12,-0.37,3.65,-0.14,-0.95,0.83,
17:58:29:707,0.06,-0.42,3.85,-0.14,-0.95,0.83,
17:58:29:711,0.11,-0.49,3.87,-0.14,-0.95,0.83,
17:58:29:712,0.11,-0.49,3.87,-0.00,-0.99,0.83,
17:58:29:722,0.18,-0.58,4.10,-0.00,-0.99,0.83,
17:58:29:723,0.18,-0.58,4.10,0.13,-1.04,0.81,
17:58:29:723,0.18,-0.58,4.10,0.27,-1.11,0.78,
17:58:29:724,0.25,-0.66,4.20,0.27,-1.11,0.78,
17:58:29:726,0.25,-0.66,4.20,0.42,-1.17,0.75,
17:58:29:727,0.22,-0.78,3.86,0.42,-1.17,0.75,
17:58:29:739,0.22,-0.78,3.86,0.56,-1.19,0.70,
17:58:29:740,0.41,-0.88,3.87,0.56,-1.19,0.70,
17:58:29:741,0.50,-0.96,3.49,0.56,-1.19,0.70,
17:58:29:741,0.50,-0.96,3.49,0.69,-1.20,0.65,
17:58:29:741,0.66,-1.02,3.23,0.69,-1.20,0.65,
17:58:29:741,0.66,-1.02,3.23,0.81,-1.18,0.60,
17:58:29:756,0.66,-1.02,3.23,0.91,-1.17,0.55,
17:58:29:757,0.80,-1.17,2.83,0.91,-1.17,0.55,
17:58:29:784,0.80,-1.17,2.83,1.00,-1.15,0.51,
17:58:29:785,0.85,-1.28,2.41,1.00,-1.15,0.51,
17:58:29:786,0.85,-1.28,2.41,1.05,-1.12,0.47,
17:58:29:786,0.85,-1.36,1.85,1.05,-1.12,0.47,
17:58:29:787,0.85,-1.36,1.85,1.09,-1.09,0.44,
17:58:29:787,0.85,-1.41,1.29,1.09,-1.09,0.44,
17:58:29:787,0.86,-1.44,0.70,1.09,-1.09,0.44,
17:58:29:788,0.86,-1.44,0.70,1.10,-1.05,0.41,
17:58:29:788,0.82,-1.45,0.18,1.10,-1.05,0.41,
17:58:29:789,0.82,-1.45,0.18,1.07,-1.02,0.39,
17:58:29:789,0.75,-1.44,-0.32,1.07,-1.02,0.39,
17:58:29:790,0.75,-1.44,-0.32,1.02,-0.98,0.37,
17:58:29:790,0.71,-1.42,-0.65,1.02,-0.98,0.37,
17:58:29:790,0.71,-1.42,-0.65,0.96,-0.94,0.34,
17:58:29:791,0.71,-1.42,-0.65,0.88,-0.90,0.32,
17:58:29:791,0.55,-1.43,-0.89,0.88,-0.90,0.32,
17:58:29:791,0.43,-1.43,-1.01,0.88,-0.90,0.32,
17:58:29:792,0.43,-1.43,-1.01,0.79,-0.87,0.30,
17:58:29:799,0.21,-1.45,-1.11,0.79,-0.87,0.30,
17:58:29:800,0.21,-1.45,-1.11,0.70,-0.86,0.28,
17:58:29:800,-0.01,-1.35,-1.05,0.70,-0.86,0.28,
17:58:29:801,-0.01,-1.35,-1.05,0.61,-0.86,0.26,
17:58:29:804,0.01,-1.24,-0.74,0.61,-0.86,0.26,
17:58:29:804,0.01,-1.24,-0.74,0.51,-0.89,0.23,
17:58:29:808,-0.03,-1.18,-0.22,0.51,-0.89,0.23,
17:58:29:809,-0.03,-1.18,-0.22,0.42,-1.00,0.20,
17:58:29:812,-0.06,-1.23,-0.24,0.42,-1.00,0.20,
17:58:29:813,-0.06,-1.23,-0.24,0.35,-1.18,0.16,
17:58:29:817,-0.12,-1.23,-0.07,0.35,-1.18,0.16,
17:58:29:818,-0.12,-1.23,-0.07,0.29,-1.31,0.12,
17:58:29:823,-0.12,-1.23,-0.07,0.25,-1.41,0.08,
17:58:29:823,-0.13,-1.18,0.04,0.25,-1.41,0.08,
17:58:29:827,-0.25,-1.09,-0.14,0.25,-1.41,0.08,
17:58:29:828,-0.25,-1.09,-0.14,0.21,-1.46,0.03,
17:58:29:832,-0.25,-1.09,-0.14,0.18,-1.44,-0.01,
17:58:29:833,-0.33,-1.01,-0.23,0.18,-1.44,-0.01,
17:58:29:838,-0.60,-0.92,-0.65,0.18,-1.44,-0.01,
17:58:29:838,-0.60,-0.92,-0.65,0.17,-1.39,-0.05,
17:58:29:842,-1.05,-0.74,-1.09,0.17,-1.39,-0.05,
17:58:29:843,-1.05,-0.74,-1.09,0.15,-1.29,-0.08,
17:58:29:850,-1.46,-0.56,-1.11,0.15,-1.29,-0.08,
17:58:29:851,-1.46,-0.56,-1.11,0.14,-1.15,-0.07,
17:58:29:852,-1.61,-0.48,-1.12,0.14,-1.15,-0.07,
17:58:29:852,-1.61,-0.48,-1.12,0.13,-1.01,-0.05,
17:58:29:858,-1.61,-0.48,-1.12,0.13,-0.90,-0.01,
17:58:29:858,-1.75,-0.37,-1.36,0.13,-0.90,-0.01,
17:58:29:882,-1.75,-0.37,-1.36,0.12,-0.80,0.04,
17:58:29:883,-1.88,-0.29,-1.44,0.12,-0.80,0.04,
17:58:29:884,-1.88,-0.29,-1.44,0.11,-0.71,0.10,
17:58:29:884,-2.07,-0.17,-1.58,0.11,-0.71,0.10,
17:58:29:884,-2.13,-0.12,-1.81,0.11,-0.71,0.10,
17:58:29:885,-2.13,-0.12,-1.81,0.10,-0.63,0.17,
17:58:29:885,-2.33,0.01,-2.18,0.10,-0.63,0.17,
17:58:29:885,-2.33,0.01,-2.18,0.09,-0.56,0.25,
17:58:29:885,-2.65,0.21,-2.29,0.09,-0.56,0.25,
17:58:29:886,-2.65,0.21,-2.29,0.08,-0.45,0.33,
17:58:29:886,-2.66,0.32,-1.93,0.08,-0.45,0.33,
17:58:29:887,-2.66,0.32,-1.93,0.06,-0.36,0.41,
17:58:29:890,-2.66,0.32,-1.93,0.04,-0.32,0.49,
17:58:29:891,-2.86,0.55,-2.04,0.04,-0.32,0.49,
17:58:29:904,-2.86,0.55,-2.04,0.02,-0.28,0.56,
17:58:29:905,-2.78,0.65,-2.01,0.02,-0.28,0.56,
17:58:29:905,-2.57,0.76,-1.85,0.02,-0.28,0.56,
17:58:29:906,-2.57,0.76,-1.85,-0.01,-0.26,0.62,
17:58:29:906,-2.57,0.76,-1.85,-0.04,-0.26,0.66,
17:58:29:906,-2.15,0.71,-1.66,-0.04,-0.26,0.66,
17:58:29:909,-1.77,0.68,-1.67,-0.04,-0.26,0.66,
17:58:29:910,-1.77,0.68,-1.67,-0.07,-0.27,0.67,
17:58:29:921,-1.53,0.62,-1.70,-0.07,-0.27,0.67,
17:58:29:922,-1.53,0.62,-1.70,-0.09,-0.26,0.66,
17:58:29:923,-1.34,0.48,-1.53,-0.09,-0.26,0.66,
17:58:29:923,-1.34,0.48,-1.53,-0.11,-0.25,0.63,
17:58:29:925,-0.98,0.19,-1.22,-0.11,-0.25,0.63,
17:58:29:926,-0.98,0.19,-1.22,-0.12,-0.24,0.60,
17:58:29:938,-0.63,-0.11,-0.91,-0.12,-0.24,0.60,
17:58:29:939,-0.63,-0.11,-0.91,-0.13,-0.27,0.54,
17:58:29:939,-0.53,-0.32,-0.67,-0.13,-0.27,0.54,
17:58:29:940,-0.53,-0.32,-0.67,-0.13,-0.32,0.49,
17:58:29:940,-0.53,-0.32,-0.67,-0.13,-0.40,0.43,
17:58:29:940,-0.51,-0.42,-0.37,-0.13,-0.40,0.43,
17:58:29:953,-0.51,-0.42,-0.37,-0.13,-0.50,0.40,
17:58:29:955,-0.68,-0.49,-0.18,-0.13,-0.50,0.40,
17:58:29:956,-0.86,-0.56,-0.06,-0.13,-0.50,0.40,
17:58:29:958,-0.86,-0.56,-0.06,-0.13,-0.61,0.38,
17:58:29:960,-0.86,-0.56,-0.06,-0.12,-0.74,0.38,
17:58:29:961,-1.01,-0.55,0.01,-0.12,-0.74,0.38,
17:58:29:962,-0.93,-0.64,-0.12,-0.12,-0.74,0.38,
17:58:29:963,-0.93,-0.64,-0.12,-0.11,-0.88,0.41,
17:58:29:979,-0.93,-0.64,-0.12,-0.12,-1.02,0.44,
17:58:29:981,-1.02,-0.67,-0.11,-0.12,-1.02,0.44,
17:58:29:982,-1.02,-0.67,-0.11,-0.11,-1.13,0.49,
17:58:29:982,-1.00,-0.76,0.17,-0.11,-1.13,0.49,
17:58:29:983,-1.06,-0.72,0.01,-0.11,-1.13,0.49,
17:58:29:983,-1.06,-0.72,0.01,-0.10,-1.22,0.55,
17:58:29:984,-1.09,-0.67,-0.09,-0.10,-1.22,0.55,
17:58:29:984,-1.09,-0.67,-0.09,-0.09,-1.24,0.61,
17:58:29:985,-1.09,-0.67,-0.09,-0.08,-1.21,0.67,
17:58:29:985,-1.02,-0.61,-0.19,-0.08,-1.21,0.67,
17:58:29:991,-0.91,-0.50,-0.22,-0.08,-1.21,0.67,
17:58:29:994,-0.91,-0.50,-0.22,-0.06,-1.15,0.72,
17:58:30:036,-0.91,-0.50,-0.22,-0.04,-1.07,0.76,
17:58:30:037,-0.75,-0.35,-0.25,-0.04,-1.07,0.76,
17:58:30:037,-0.60,-0.22,-0.35,-0.04,-1.07,0.76,
17:58:30:038,-0.60,-0.22,-0.35,-0.01,-0.99,0.77,
17:58:30:038,-0.60,-0.22,-0.35,0.02,-0.90,0.75,
17:58:30:038,-0.28,-0.17,-0.40,0.02,-0.90,0.75,
17:58:30:039,-0.28,-0.17,-0.40,0.04,-0.84,0.72,
17:58:30:039,-0.03,-0.16,-0.58,0.04,-0.84,0.72,
17:58:30:040,-0.03,-0.16,-0.58,0.06,-0.77,0.67,
17:58:30:040,0.20,-0.15,-0.59,0.06,-0.77,0.67,
17:58:30:041,0.25,-0.15,-0.64,0.06,-0.77,0.67,
17:58:30:041,0.25,-0.15,-0.64,0.08,-0.71,0.62,
17:58:30:041,0.28,-0.13,-0.65,0.08,-0.71,0.62,
17:58:30:042,0.28,-0.13,-0.65,0.11,-0.66,0.57,
17:58:30:042,0.28,-0.13,-0.65,0.13,-0.62,0.53,
17:58:30:043,0.16,-0.15,-0.64,0.13,-0.62,0.53,
17:58:30:043,0.16,-0.15,-0.64,0.16,-0.59,0.50,
17:58:30:044,-0.13,-0.08,-0.76,0.16,-0.59,0.50,
17:58:30:044,-0.35,0.02,-0.64,0.16,-0.59,0.50,
17:58:30:045,-0.35,0.02,-0.64,0.19,-0.58,0.48,
17:58:30:045,-0.40,0.20,-0.35,0.19,-0.58,0.48,
17:58:30:045,-0.40,0.20,-0.35,0.23,-0.61,0.46,
17:58:30:046,-0.74,0.39,-0.38,0.23,-0.61,0.46,
17:58:30:046,-0.74,0.39,-0.38,0.27,-0.69,0.46,
17:58:30:051,-0.78,0.40,-0.27,0.27,-0.69,0.46,
17:58:30:051,-0.78,0.40,-0.27,0.31,-0.79,0.47,
17:58:30:056,-0.78,0.40,-0.27,0.35,-0.91,0.49,
17:58:30:056,-1.03,0.51,-0.61,0.35,-0.91,0.49,
17:58:30:060,-1.03,0.51,-0.61,0.39,-0.99,0.50,
17:58:30:061,-1.07,0.52,-0.77,0.39,-0.99,0.50,
17:58:30:065,-1.07,0.52,-0.77,0.43,-1.05,0.52,
17:58:30:066,-1.26,0.64,-0.89,0.43,-1.05,0.52,
17:58:30:070,-1.26,0.64,-0.89,0.47,-1.08,0.53,
17:58:30:070,-1.31,0.68,-1.01,0.47,-1.08,0.53,
17:58:30:075,-1.31,0.68,-1.01,0.50,-1.09,0.55,
17:58:30:076,-1.50,0.91,-1.18,0.50,-1.09,0.55,
17:58:30:090,-0.75,0.53,-1.26,0.50,-1.09,0.55,
17:58:30:091,-0.75,0.53,-1.26,0.53,-1.08,0.56,
17:58:30:091,-0.75,0.53,-1.26,0.55,-1.07,0.55,
17:58:30:092,-0.38,0.51,-1.67,0.55,-1.07,0.55,
17:58:30:092,-0.38,0.51,-1.67,0.56,-1.02,0.52,
17:58:30:092,-0.46,0.73,-1.88,0.56,-1.02,0.52,
17:58:30:100,-0.46,0.73,-1.88,0.55,-0.96,0.50,
17:58:30:101,-0.38,0.82,-1.85,0.55,-0.96,0.50,
17:58:30:101,-0.50,0.69,-2.16,0.55,-0.96,0.50,
17:58:30:102,-0.50,0.69,-2.16,0.53,-0.89,0.47,
17:58:30:105,-0.50,0.69,-2.16,0.49,-0.82,0.44,
17:58:30:105,-0.88,0.66,-2.93,0.49,-0.82,0.44,
17:58:30:110,-0.81,0.31,-3.38,0.49,-0.82,0.44,
17:58:30:111,-0.81,0.31,-3.38,0.43,-0.73,0.43,
17:58:30:116,-0.81,0.31,-3.38,0.34,-0.65,0.41,
17:58:30:117,-0.69,0.20,-3.43,0.34,-0.65,0.41,
17:58:30:119,-0.69,0.20,-3.43,0.23,-0.58,0.39,
17:58:30:120,-0.75,0.42,-3.13,0.23,-0.58,0.39,
17:58:30:123,-0.83,0.59,-2.86,0.23,-0.58,0.39,
17:58:30:123,-0.83,0.59,-2.86,0.13,-0.51,0.38,
17:58:30:127,-0.63,0.53,-2.70,0.13,-0.51,0.38,
17:58:30:128,-0.63,0.53,-2.70,0.05,-0.45,0.36,
17:58:30:133,-0.63,0.53,-2.70,-0.01,-0.38,0.35,
17:58:30:134,-1.17,0.64,-2.66,-0.01,-0.38,0.35,
17:58:30:138,-1.20,0.91,-2.54,-0.01,-0.38,0.35,
17:58:30:138,-1.20,0.91,-2.54,-0.07,-0.34,0.35,
17:58:30:145,-1.20,0.91,-2.54,-0.10,-0.29,0.36,
17:58:30:146,-0.78,0.65,-2.08,-0.10,-0.29,0.36,
17:58:30:147,-0.63,0.76,-1.84,-0.10,-0.29,0.36,
17:58:30:148,-0.63,0.76,-1.84,-0.13,-0.26,0.36,
17:58:30:153,-0.65,0.92,-1.77,-0.13,-0.26,0.36,
17:58:30:153,-0.65,0.92,-1.77,-0.14,-0.26,0.36,
17:58:30:158,-0.65,0.92,-1.77,-0.15,-0.25,0.36,
17:58:30:159,-0.56,1.02,-1.79,-0.15,-0.25,0.36,
17:58:30:165,-0.56,1.02,-1.79,-0.15,-0.22,0.36,
17:58:30:166,-0.40,1.04,-1.87,-0.15,-0.22,0.36,
17:58:30:169,-0.40,1.04,-1.87,-0.15,-0.19,0.35,
17:58:30:171,-0.44,1.16,-1.98,-0.15,-0.19,0.35,
17:58:30:173,-0.44,1.16,-1.98,-0.16,-0.17,0.35,
17:58:30:174,-0.49,1.25,-2.10,-0.16,-0.17,0.35,
17:58:30:190,-0.49,1.25,-2.10,-0.19,-0.15,0.36,
17:58:30:192,-0.50,1.29,-2.14,-0.19,-0.15,0.36,
17:58:30:197,-0.50,1.29,-2.14,-0.21,-0.15,0.36,
17:58:30:198,-0.56,1.40,-2.15,-0.21,-0.15,0.36,
17:58:30:199,-0.56,1.40,-2.15,-0.24,-0.14,0.37,
17:58:30:200,-0.56,1.43,-2.10,-0.24,-0.14,0.37,
17:58:30:200,-0.56,1.43,-2.10,-0.28,-0.14,0.37,
17:58:30:201,-0.50,1.41,-1.96,-0.28,-0.14,0.37,
17:58:30:201,-0.50,1.41,-1.96,-0.31,-0.14,0.37,
17:58:30:202,-0.49,1.42,-1.74,-0.31,-0.14,0.37,
17:58:30:219,-0.49,1.42,-1.74,-0.33,-0.15,0.38,
17:58:30:220,-0.42,1.38,-1.43,-0.33,-0.15,0.38,
17:58:30:220,-0.42,1.38,-1.43,-0.35,-0.18,0.38,
17:58:30:220,-0.24,1.34,-1.07,-0.35,-0.18,0.38,
17:58:30:221,-0.24,1.34,-1.07,-0.36,-0.21,0.38,
17:58:30:221,-0.01,1.27,-0.65,-0.36,-0.21,0.38,
17:58:30:221,-0.01,1.27,-0.65,-0.36,-0.27,0.36,
17:58:30:221,0.20,1.20,-0.17,-0.36,-0.27,0.36,
17:58:30:222,0.20,1.20,-0.17,-0.35,-0.33,0.33,
17:58:30:222,0.41,1.13,0.29,-0.35,-0.33,0.33,
17:58:30:226,0.52,1.08,0.68,-0.35,-0.33,0.33,
17:58:30:226,0.52,1.08,0.68,-0.33,-0.39,0.30,
17:58:30:232,0.52,1.08,0.68,-0.30,-0.45,0.27,
17:58:30:233,0.53,1.06,1.04,-0.30,-0.45,0.27,
17:58:30:256,0.53,1.06,1.04,-0.25,-0.49,0.23,
17:58:30:257,0.57,1.07,1.40,-0.25,-0.49,0.23,
17:58:30:257,0.62,1.09,1.68,-0.25,-0.49,0.23,
17:58:30:257,0.62,1.09,1.68,-0.20,-0.53,0.20,
17:58:30:258,0.73,1.10,1.73,-0.20,-0.53,0.20,
17:58:30:258,0.73,1.10,1.73,-0.15,-0.58,0.16,
17:58:30:258,0.73,1.10,1.73,-0.09,-0.62,0.11,
17:58:30:259,0.80,1.16,1.75,-0.09,-0.62,0.11,
17:58:30:259,0.81,1.21,1.71,-0.09,-0.62,0.11,
17:58:30:259,0.81,1.21,1.71,-0.03,-0.67,0.06,
17:58:30:260,0.67,1.22,1.50,-0.03,-0.67,0.06,
17:58:30:260,0.67,1.22,1.50,0.02,-0.72,0.02,
17:58:30:264,0.56,1.24,1.28,0.02,-0.72,0.02,
17:58:30:265,0.56,1.24,1.28,0.06,-0.76,-0.01,
17:58:30:269,0.51,1.15,1.07,0.06,-0.76,-0.01,
17:58:30:270,0.51,1.15,1.07,0.10,-0.79,-0.03,
17:58:30:274,0.41,1.11,0.89,0.10,-0.79,-0.03,
17:58:30:274,0.41,1.11,0.89,0.12,-0.83,-0.04,
17:58:30:286,0.29,1.09,0.68,0.12,-0.83,-0.04,
17:58:30:287,0.29,1.09,0.68,0.13,-0.86,-0.05,
17:58:30:287,0.25,1.02,0.41,0.13,-0.86,-0.05,
17:58:30:288,0.25,1.02,0.41,0.13,-0.89,-0.05,
17:58:30:293,0.64,0.58,-0.08,0.13,-0.89,-0.05,
17:58:30:294,0.93,0.00,-0.61,0.13,-0.89,-0.05,
17:58:30:294,0.93,0.00,-0.61,0.12,-0.90,-0.05,
17:58:30:315,0.93,0.00,-0.61,0.09,-0.88,-0.07,
17:58:30:316,1.41,0.12,-0.81,0.09,-0.88,-0.07,
17:58:30:317,1.41,0.12,-0.81,0.05,-0.85,-0.11,
17:58:30:317,0.53,0.92,-1.14,0.05,-0.85,-0.11,
17:58:30:317,0.14,1.07,-1.45,0.05,-0.85,-0.11,
17:58:30:317,0.14,1.07,-1.45,-0.01,-0.81,-0.14,
17:58:30:318,0.14,1.07,-1.45,-0.09,-0.79,-0.12,
17:58:30:318,-0.06,1.03,-1.75,-0.09,-0.79,-0.12,
17:58:30:318,-0.06,1.03,-1.75,-0.20,-0.78,-0.08,
17:58:30:321,-0.06,1.03,-1.75,-0.33,-0.77,-0.03,
17:58:30:321,-0.23,0.94,-1.68,-0.33,-0.77,-0.03,
17:58:30:323,-0.21,0.72,-1.58,-0.33,-0.77,-0.03,
17:58:30:323,-0.21,0.72,-1.58,-0.46,-0.80,0.04,
17:58:30:329,-0.21,0.72,-1.58,-0.59,-0.83,0.09,
17:58:30:330,-0.08,0.39,-1.41,-0.59,-0.83,0.09,
17:58:30:332,-0.08,0.39,-1.41,-0.70,-0.86,0.12,
17:58:30:333,0.01,0.16,-1.18,-0.70,-0.86,0.12,
17:58:30:337,0.01,0.16,-1.18,-0.78,-0.90,0.14,
17:58:30:338,-0.14,0.07,-0.77,-0.78,-0.90,0.14,
17:58:30:341,-0.14,0.07,-0.77,-0.84,-0.96,0.16,
17:58:30:342,-0.33,0.03,-0.29,-0.84,-0.96,0.16,
17:58:30:348,-0.33,0.03,-0.29,-0.87,-1.06,0.18,
17:58:30:348,-0.38,-0.07,0.20,-0.87,-1.06,0.18,
17:58:30:352,-0.35,-0.27,0.68,-0.87,-1.06,0.18,
17:58:30:352,-0.35,-0.27,0.68,-0.88,-1.19,0.20,
17:58:30:356,-0.35,-0.47,1.12,-0.88,-1.19,0.20,
17:58:30:356,-0.35,-0.47,1.12,-0.86,-1.37,0.22,
17:58:30:361,-0.36,-0.70,1.53,-0.86,-1.37,0.22,
17:58:30:362,-0.36,-0.70,1.53,-0.82,-1.59,0.22,
17:58:30:366,-0.36,-0.70,1.53,-0.76,-1.85,0.22,
17:58:30:366,-0.38,-0.83,1.89,-0.76,-1.85,0.22,
17:58:30:370,-0.06,-1.08,2.05,-0.76,-1.85,0.22,
17:58:30:371,-0.06,-1.08,2.05,-0.69,-2.18,0.21,
17:58:30:377,-0.40,-1.19,2.10,-0.69,-2.18,0.21,
17:58:30:378,-0.40,-1.19,2.10,-0.61,-2.58,0.19,
17:58:30:380,-0.40,-1.19,2.10,-0.51,-2.95,0.18,
17:58:30:380,-1.01,-1.17,2.51,-0.51,-2.95,0.18,
17:58:30:385,-1.01,-1.17,2.51,-0.39,-3.33,0.19,
17:58:30:385,-1.65,-1.17,2.91,-0.39,-3.33,0.19,
17:58:30:389,-1.65,-1.17,2.91,-0.27,-3.89,0.24,
17:58:30:390,-2.59,-1.39,3.25,-0.27,-3.89,0.24,
17:58:30:402,-2.59,-1.39,3.25,-0.16,-4.60,0.35,
17:58:30:403,-2.80,-1.12,2.54,-0.16,-4.60,0.35,
17:58:30:404,-2.80,-1.12,2.54,-0.05,-5.14,0.47,
17:58:30:405,-2.89,-1.00,2.57,-0.05,-5.14,0.47,
17:58:30:415,-2.84,-0.90,2.57,-0.05,-5.14,0.47,
17:58:30:415,-2.84,-0.90,2.57,0.06,-5.52,0.58,
17:58:30:416,-2.96,-0.64,2.72,0.06,-5.52,0.58,
17:58:30:416,-2.96,-0.64,2.72,0.18,-5.74,0.68,
17:58:30:417,-3.20,-0.38,2.96,0.18,-5.74,0.68,
17:58:30:418,-3.20,-0.38,2.96,0.30,-5.87,0.79,
17:58:30:433,-3.20,-0.38,2.96,0.43,-5.99,0.91,
17:58:30:435,-3.32,-0.28,3.27,0.43,-5.99,0.91,
17:58:30:435,-3.32,-0.28,3.27,0.58,-6.11,1.04,
17:58:30:437,-3.34,-0.25,3.63,0.58,-6.11,1.04,
17:58:30:438,-3.34,-0.25,3.63,0.74,-6.25,1.16,
17:58:30:439,-3.19,-0.22,3.94,0.74,-6.25,1.16,
17:58:30:439,-3.19,-0.22,3.94,0.92,-6.40,1.26,
17:58:30:440,-2.88,-0.35,3.84,0.92,-6.40,1.26,
17:58:30:440,-2.88,-0.35,3.84,1.10,-6.53,1.33,
17:58:30:441,-2.53,-0.54,3.66,1.10,-6.53,1.33,
17:58:30:448,-2.53,-0.54,3.66,1.27,-6.64,1.37,
17:58:30:449,-2.19,-0.84,3.50,1.27,-6.64,1.37,
17:58:30:449,-2.19,-0.84,3.50,1.43,-6.73,1.38,
17:58:30:449,-1.88,-1.21,3.11,1.43,-6.73,1.38,
17:58:30:453,-1.88,-1.21,3.11,1.57,-6.79,1.37,
17:58:30:453,-1.60,-1.67,2.62,1.57,-6.79,1.37,
17:58:30:458,-1.60,-1.67,2.62,1.68,-6.82,1.34,
17:58:30:458,-1.34,-2.04,2.17,1.68,-6.82,1.34,
17:58:30:463,-1.11,-2.42,1.76,1.68,-6.82,1.34,
17:58:30:464,-1.11,-2.42,1.76,1.77,-6.82,1.29,
17:58:30:469,-0.91,-2.80,1.55,1.77,-6.82,1.29,
17:58:30:470,-0.91,-2.80,1.55,1.83,-6.80,1.23,
17:58:30:473,-0.64,-3.20,1.54,1.83,-6.80,1.23,
17:58:30:473,-0.64,-3.20,1.54,1.86,-6.78,1.16,
17:58:30:524,-0.45,-3.55,1.70,1.86,-6.78,1.16,
17:58:30:524,-0.38,-3.78,1.95,1.86,-6.78,1.16,
17:58:30:525,-0.57,-3.84,2.31,1.86,-6.78,1.16,
17:58:30:525,-1.02,-3.77,2.18,1.86,-6.78,1.16,
17:58:30:525,-1.48,-3.67,1.88,1.86,-6.78,1.16,
17:58:30:525,-1.48,-3.67,1.88,1.89,-6.77,1.08,
17:58:30:526,-1.48,-3.67,1.88,1.93,-6.80,0.98,
17:58:30:526,-1.48,-3.67,1.88,1.98,-6.87,0.86,
17:58:30:526,-1.48,-3.67,1.88,2.07,-6.99,0.74,
17:58:30:527,-1.48,-3.67,1.88,2.17,-7.05,0.65,
17:58:30:527,-1.48,-3.67,1.88,2.28,-7.04,0.57,
17:58:30:527,-1.84,-3.48,1.68,2.28,-7.04,0.57,
17:58:30:527,-1.84,-3.48,1.68,2.40,-6.97,0.52,
17:58:30:527,-2.14,-3.29,1.56,2.40,-6.97,0.52,
17:58:30:528,-2.14,-3.29,1.56,2.52,-6.85,0.48,
17:58:30:528,-2.14,-3.29,1.56,2.64,-6.70,0.45,
17:58:30:528,-2.34,-3.10,1.51,2.64,-6.70,0.45,
17:58:30:528,-2.34,-3.10,1.51,2.73,-6.49,0.44,
17:58:30:528,-2.66,-2.65,1.28,2.73,-6.49,0.44,
17:58:30:529,-3.15,-1.84,0.86,2.73,-6.49,0.44,
17:58:30:529,-3.15,-1.84,0.86,2.80,-6.22,0.46,
17:58:30:529,-3.65,-1.15,0.44,2.80,-6.22,0.46,
17:58:30:537,-3.65,-1.15,0.44,2.85,-5.91,0.53,
17:58:30:537,-3.82,-0.75,-0.04,2.85,-5.91,0.53,
17:58:30:538,-3.82,-0.75,-0.04,2.86,-5.58,0.61,
17:58:30:538,-3.60,-0.40,-0.39,2.86,-5.58,0.61,
17:58:30:540,-3.60,-0.40,-0.39,2.85,-5.21,0.67,
17:58:30:541,-3.18,-0.19,-0.87,2.85,-5.21,0.67,
17:58:30:546,-3.18,-0.19,-0.87,2.79,-4.82,0.71,
17:58:30:546,-2.75,0.07,-1.26,2.79,-4.82,0.71,
17:58:30:550,-2.75,0.07,-1.26,2.71,-4.45,0.72,
17:58:30:550,-2.22,0.33,-1.40,2.71,-4.45,0.72,
17:58:30:555,-1.76,0.37,-1.63,2.71,-4.45,0.72,
17:58:30:555,-1.76,0.37,-1.63,2.60,-4.09,0.71,
17:58:30:561,-1.76,0.37,-1.63,2.49,-3.76,0.67,
17:58:30:562,-1.32,0.56,-1.41,2.49,-3.76,0.67,
17:58:30:565,-1.32,0.56,-1.41,2.39,-3.51,0.62,
17:58:30:565,-0.94,0.61,-1.28,2.39,-3.51,0.62,
17:58:30:569,-0.83,0.63,-1.05,2.39,-3.51,0.62,
17:58:30:570,-0.83,0.63,-1.05,2.31,-3.30,0.55,
17:58:30:574,-0.83,0.69,-0.70,2.31,-3.30,0.55,
17:58:30:574,-0.83,0.69,-0.70,2.24,-3.16,0.47,
17:58:30:579,-0.83,0.69,-0.70,2.20,-3.11,0.39,
17:58:30:580,-0.93,0.82,-0.31,2.20,-3.11,0.39,
17:58:30:584,-1.09,0.94,0.12,2.20,-3.11,0.39,
17:58:30:584,-1.09,0.94,0.12,2.15,-3.15,0.33,
17:58:30:589,-1.09,0.94,0.12,2.12,-3.27,0.28,
17:58:30:590,-1.33,0.99,0.37,2.12,-3.27,0.28,
17:58:30:595,-1.60,0.96,0.47,2.12,-3.27,0.28,
17:58:30:595,-1.60,0.96,0.47,2.09,-3.43,0.27,
17:58:30:598,-1.60,0.96,0.47,2.06,-3.61,0.26,
17:58:30:599,-1.83,0.93,0.54,2.06,-3.61,0.26,
17:58:30:603,-1.83,0.93,0.54,2.04,-3.78,0.26,
17:58:30:604,-2.00,0.89,0.56,2.04,-3.78,0.26,
17:58:30:609,-2.00,0.89,0.56,2.01,-3.93,0.26,
17:58:30:611,-2.22,0.94,0.63,2.01,-3.93,0.26,
17:58:30:619,-2.37,1.01,0.65,2.01,-3.93,0.26,
17:58:30:620,-2.37,1.01,0.65,1.98,-4.05,0.29,
17:58:30:622,-2.37,1.01,0.65,1.96,-4.13,0.33,
17:58:30:623,-2.52,1.15,0.69,1.96,-4.13,0.33,
17:58:30:624,-2.61,1.32,0.77,1.96,-4.13,0.33,
17:58:30:624,-2.61,1.32,0.77,1.94,-4.17,0.41,
17:58:30:647,-2.60,1.52,0.85,1.94,-4.17,0.41,
17:58:30:648,-2.60,1.52,0.85,1.93,-4.18,0.51,
17:58:30:648,-2.60,1.52,0.85,1.92,-4.16,0.63,
17:58:30:648,-2.46,1.75,0.95,1.92,-4.16,0.63,
17:58:30:649,-2.46,1.75,0.95,1.92,-4.11,0.75,
17:58:30:649,-2.23,2.02,1.10,1.92,-4.11,0.75,
17:58:30:649,-2.23,2.02,1.10,1.94,-4.03,0.86,
17:58:30:650,-1.83,2.31,1.47,1.94,-4.03,0.86,
17:58:30:650,-1.40,2.66,1.99,1.94,-4.03,0.86,
17:58:30:650,-1.40,2.66,1.99,1.97,-3.95,0.96,
17:58:30:652,-1.40,2.66,1.99,2.05,-4.19,1.05,
17:58:30:652,1.40,3.43,8.22,2.05,-4.19,1.05,
17:58:30:657,1.40,3.43,8.22,2.26,-5.38,1.16,
17:58:30:657,-1.65,2.15,5.94,2.26,-5.38,1.16,
17:58:30:662,-1.65,2.15,5.94,2.04,-7.39,1.26,
17:58:30:662,-5.05,2.13,-5.01,2.04,-7.39,1.26,
17:58:30:666,-5.05,2.13,-5.01,1.38,-9.47,1.35,
17:58:30:667,-2.46,1.50,0.75,1.38,-9.47,1.35,
17:58:30:671,-2.46,1.50,0.75,1.24,-9.81,1.37,
17:58:30:671,-3.37,0.76,2.17,1.24,-9.81,1.37,
17:58:30:676,-3.37,0.76,2.17,1.13,-10.39,1.35,
17:58:30:676,-2.90,0.42,2.08,1.13,-10.39,1.35,
17:58:30:681,-2.90,0.42,2.08,1.10,-10.67,1.23,
17:58:30:682,-3.32,-0.73,-2.72,1.10,-10.67,1.23,
17:58:30:687,-4.03,-2.16,-12.45,1.10,-10.67,1.23,
17:58:30:687,-4.03,-2.16,-12.45,1.31,-9.76,1.05,
17:58:30:691,-4.64,-0.95,-4.85,1.31,-9.76,1.05,
17:58:30:692,-4.64,-0.95,-4.85,1.62,-8.27,0.83,
17:58:30:697,-4.74,-1.21,-2.31,1.62,-8.27,0.83,
17:58:30:698,-4.74,-1.21,-2.31,1.81,-7.91,0.64,
17:58:30:701,-3.62,-1.47,-2.27,1.81,-7.91,0.64,
17:58:30:701,-3.62,-1.47,-2.27,2.06,-7.64,0.42,
17:58:30:705,-14.77,1.70,-33.47,2.06,-7.64,0.42,
17:58:30:707,-14.77,1.70,-33.47,2.30,-6.47,0.23,
17:58:30:713,-11.00,3.92,-33.40,2.30,-6.47,0.23,
17:58:30:715,-11.00,3.92,-33.40,1.54,-1.12,0.47,
17:58:30:716,-3.39,2.69,1.20,1.54,-1.12,0.47,
17:58:30:716,-3.39,2.69,1.20,1.02,0.86,0.91,
17:58:30:752,-3.39,2.69,1.20,1.11,0.26,1.27,
17:58:30:753,0.12,2.42,5.20,1.11,0.26,1.27,
17:58:30:754,0.12,2.42,5.20,1.27,-0.22,1.55,
17:58:30:754,3.55,1.51,5.78,1.27,-0.22,1.55,
17:58:30:755,-3.49,1.24,2.75,1.27,-0.22,1.55,
17:58:30:755,-3.49,1.24,2.75,1.46,-0.41,1.72,
17:58:30:756,-10.90,2.15,-4.18,1.46,-0.41,1.72,
17:58:30:757,-10.90,2.15,-4.18,1.65,-0.09,1.95,
17:58:30:758,-10.90,2.15,-4.18,1.74,0.74,2.24,
17:58:30:760,-15.74,2.81,-11.38,1.74,0.74,2.24,
17:58:30:763,-18.61,2.74,-9.73,1.74,0.74,2.24,
17:58:30:764,-18.61,2.74,-9.73,1.64,1.62,2.56,
17:58:30:765,-18.61,2.74,-9.73,1.51,1.90,2.84,
17:58:30:766,-15.37,1.21,-2.33,1.51,1.90,2.84,
17:58:30:767,-15.37,1.21,-2.33,1.43,1.39,2.94,
17:58:30:768,-6.33,-1.54,0.46,1.43,1.39,2.94,
17:58:30:768,-6.33,-1.54,0.46,1.15,0.26,2.65,
17:58:30:769,2.22,-4.74,-3.59,1.15,0.26,2.65,
17:58:30:769,2.22,-4.74,-3.59,0.69,-0.49,2.07,
17:58:30:770,5.62,-6.12,-5.63,0.69,-0.49,2.07,
17:58:30:771,6.86,-6.36,-4.86,0.69,-0.49,2.07,
17:58:30:772,6.86,-6.36,-4.86,0.32,-0.68,1.45,
17:58:30:774,6.86,-6.36,-4.86,0.11,-0.80,0.88,
17:58:30:775,6.71,-5.69,-4.05,0.11,-0.80,0.88,
17:58:30:779,6.71,-5.69,-4.05,-0.01,-0.97,0.37,
17:58:30:779,5.18,-4.52,-3.58,-0.01,-0.97,0.37,
17:58:30:783,5.18,-4.52,-3.58,-0.13,-1.17,-0.07,
17:58:30:784,3.10,-3.28,-3.08,-0.13,-1.17,-0.07,
17:58:30:788,3.10,-3.28,-3.08,-0.26,-1.41,-0.40,
17:58:30:789,1.15,-2.27,-2.94,-0.26,-1.41,-0.40,
17:58:30:794,-0.29,-1.59,-2.66,-0.26,-1.41,-0.40,
17:58:30:794,-0.29,-1.59,-2.66,-0.43,-1.61,-0.61,
17:58:30:802,-0.29,-1.59,-2.66,-0.61,-1.75,-0.72,
17:58:30:803,-1.20,-1.23,-2.21,-0.61,-1.75,-0.72,
17:58:30:804,-1.91,-1.14,-1.75,-0.61,-1.75,-0.72,
17:58:30:804,-1.91,-1.14,-1.75,-0.77,-1.87,-0.74,
17:58:30:809,-1.91,-1.14,-1.75,-0.92,-2.02,-0.69,
17:58:30:810,-2.83,-1.30,-1.45,-0.92,-2.02,-0.69,
17:58:30:854,-3.65,-1.58,-1.25,-0.92,-2.02,-0.69,
17:58:30:861,-3.65,-1.58,-1.25,-1.02,-2.16,-0.58,
17:58:30:862,-3.65,-1.58,-1.25,-1.02,-2.18,-0.44,
17:58:30:862,-3.95,-1.98,-0.71,-1.02,-2.18,-0.44,
17:58:30:863,-3.19,-2.60,0.98,-1.02,-2.18,-0.44,
17:58:30:863,-3.19,-2.60,0.98,-0.82,-1.95,-0.33,
17:58:30:864,-3.13,-2.18,4.15,-0.82,-1.95,-0.33,
17:58:30:864,-3.13,-2.18,4.15,-0.32,-1.50,-0.34,
17:58:30:864,-3.13,-2.18,4.15,0.19,-1.39,-0.35,
17:58:30:865,-3.42,-1.50,5.78,0.19,-1.39,-0.35,
17:58:30:865,-2.70,-1.45,5.32,0.19,-1.39,-0.35,
17:58:30:868,-2.70,-1.45,5.32,0.53,-1.65,-0.33,
17:58:30:869,-2.07,-1.49,3.86,0.53,-1.65,-0.33,
17:58:30:873,-2.07,-1.49,3.86,0.77,-1.94,-0.32,
17:58:30:875,-2.07,-1.49,3.86,0.92,-2.16,-0.31,
17:58:30:876,-1.66,-1.44,1.92,0.92,-2.16,-0.31,
17:58:30:877,-1.66,-1.44,1.92,1.00,-2.27,-0.28,
17:58:30:879,-1.36,-1.27,0.11,1.00,-2.27,-0.28,
17:58:30:881,-1.36,-1.27,0.11,1.00,-2.30,-0.24,
17:58:30:882,-1.38,-0.83,-1.25,1.00,-2.30,-0.24,
17:58:30:883,-1.38,-0.83,-1.25,0.92,-2.29,-0.16,
17:58:30:884,-1.63,-0.37,-2.25,0.92,-2.29,-0.16,
17:58:30:884,-1.65,-0.09,-3.61,0.92,-2.29,-0.16,
17:58:30:886,-1.65,-0.09,-3.61,0.82,-2.16,-0.08,
17:58:30:887,-1.22,-0.07,-4.60,0.82,-2.16,-0.08,
17:58:30:888,-1.22,-0.07,-4.60,0.72,-1.81,0.01,
17:58:30:889,-1.22,-0.07,-4.60,0.58,-1.27,0.07,
17:58:30:891,-0.30,-0.06,-5.55,0.58,-1.27,0.07,
17:58:30:892,-0.30,-0.06,-5.55,0.39,-0.61,0.12,
17:58:30:893,0.76,0.09,-6.38,0.39,-0.61,0.12,
17:58:30:895,2.12,0.83,-6.55,0.39,-0.61,0.12,
17:58:30:896,2.12,0.83,-6.55,0.10,0.08,0.16,
17:58:30:897,2.12,0.83,-6.55,-0.29,0.59,0.17,
17:58:30:898,3.80,2.07,-5.79,-0.29,0.59,0.17,
17:58:30:899,4.58,2.83,-5.25,-0.29,0.59,0.17,
17:58:30:902,4.58,2.83,-5.25,-0.75,0.75,0.10,
17:58:30:902,4.58,2.83,-5.25,-1.24,0.62,-0.04,
17:58:30:903,5.14,2.97,-5.62,-1.24,0.62,-0.04,
17:58:30:904,5.14,2.97,-5.62,-1.76,0.49,-0.28,
17:58:30:905,5.69,2.24,-8.06,-1.76,0.49,-0.28,
17:58:30:923,5.69,2.24,-8.06,-2.31,0.55,-0.62,
17:58:30:924,6.64,1.72,-9.42,-2.31,0.55,-0.62,
17:58:30:924,6.64,1.72,-9.42,-2.89,0.62,-1.02,
17:58:30:925,6.10,1.30,-9.93,-2.89,0.62,-1.02,
17:58:30:925,6.10,1.30,-9.93,-3.44,0.84,-1.41,
17:58:30:925,6.47,1.05,-9.25,-3.44,0.84,-1.41,
17:58:30:926,6.47,1.05,-9.25,-3.96,1.12,-1.79,
17:58:30:926,5.81,0.72,-7.99,-3.96,1.12,-1.79,
17:58:30:935,5.81,0.72,-7.99,-4.44,1.38,-2.11,
17:58:30:936,4.80,0.29,-6.79,-4.44,1.38,-2.11,
17:58:30:936,4.80,0.29,-6.79,-4.88,1.64,-2.35,
17:58:30:937,3.81,-0.16,-6.11,-4.88,1.64,-2.35,
17:58:30:938,3.81,-0.16,-6.11,-5.28,1.94,-2.53,
17:58:30:938,2.99,-0.66,-5.59,-5.28,1.94,-2.53,
17:58:30:943,2.99,-0.66,-5.59,-5.66,2.27,-2.67,
17:58:30:943,2.11,-1.23,-5.10,-5.66,2.27,-2.67,
17:58:30:948,1.50,-1.89,-4.46,-5.66,2.27,-2.67,
17:58:30:948,1.50,-1.89,-4.46,-6.01,2.60,-2.80,
17:58:30:952,1.09,-2.60,-3.90,-6.01,2.60,-2.80,
17:58:30:953,1.09,-2.60,-3.90,-6.33,2.90,-2.91,
17:58:30:958,1.09,-2.60,-3.90,-6.63,3.17,-3.00,
17:58:30:958,0.96,-3.24,-3.50,-6.63,3.17,-3.00,
17:58:30:988,0.82,-3.73,-2.97,-6.63,3.17,-3.00,
17:58:30:989,0.82,-3.73,-2.97,-6.90,3.43,-3.10,
17:58:30:989,0.82,-3.73,-2.97,-7.14,3.65,-3.18,
17:58:30:990,0.33,-3.83,-1.73,-7.14,3.65,-3.18,
17:58:30:991,0.33,-3.83,-1.73,-7.29,3.76,-3.21,
17:58:30:991,-0.59,-3.68,0.31,-7.29,3.76,-3.21,
17:58:30:992,-2.23,-3.01,5.32,-7.29,3.76,-3.21,
17:58:30:992,-2.23,-3.01,5.32,-7.31,3.66,-3.15,
17:58:30:993,-2.47,-4.00,1.72,-7.31,3.66,-3.15,
17:58:30:993,-2.47,-4.00,1.72,-7.10,3.40,-2.97,
17:58:30:994,-2.39,-5.22,-0.02,-7.10,3.40,-2.97,
17:58:30:994,-2.39,-5.22,-0.02,-7.00,3.65,-2.87,
17:58:30:995,-3.57,-5.81,1.09,-7.00,3.65,-2.87,
17:58:30:995,-3.57,-5.81,1.09,-7.03,4.05,-2.83,
17:58:30:997,-4.24,-6.01,2.23,-7.03,4.05,-2.83,
17:58:30:997,-4.24,-6.01,2.23,-7.04,4.37,-2.75,
17:58:31:002,-4.24,-6.01,2.23,-7.00,4.63,-2.65,
17:58:31:003,-4.35,-6.23,2.35,-7.00,4.63,-2.65,
17:58:31:007,-4.53,-6.48,2.34,-7.00,4.63,-2.65,
17:58:31:007,-4.53,-6.48,2.34,-6.97,4.93,-2.55,
17:58:31:011,-4.53,-6.48,2.34,-6.95,5.26,-2.44,
17:58:31:012,-4.80,-6.34,3.05,-6.95,5.26,-2.44,
17:58:31:016,-5.31,-6.23,3.30,-6.95,5.26,-2.44,
17:58:31:017,-5.31,-6.23,3.30,-6.92,5.51,-2.31,
17:58:31:021,-5.31,-6.23,3.30,-6.88,5.67,-2.15,
17:58:31:022,-5.86,-6.01,2.67,-6.88,5.67,-2.15,
17:58:31:027,-5.86,-6.01,2.67,-6.86,5.83,-1.94,
17:58:31:028,-6.76,-5.91,1.96,-6.86,5.83,-1.94,
17:58:31:031,-6.76,-5.91,1.96,-6.83,5.94,-1.68,
17:58:31:032,-7.33,-5.76,2.44,-6.83,5.94,-1.68,
17:58:31:035,-7.33,-5.76,2.44,-6.77,5.98,-1.38,
17:58:31:036,-7.39,-5.77,2.10,-6.77,5.98,-1.38,
17:58:31:042,-7.12,-5.62,2.06,-6.77,5.98,-1.38,
17:58:31:043,-7.12,-5.62,2.06,-6.69,6.01,-1.05,
17:58:31:048,-7.17,-5.14,2.91,-6.69,6.01,-1.05,
17:58:31:049,-7.17,-5.14,2.91,-6.58,5.98,-0.68,
17:58:31:050,-7.17,-5.14,2.91,-6.40,5.87,-0.26,
17:58:31:051,-6.58,-4.48,3.15,-6.40,5.87,-0.26,
17:58:31:056,-5.45,-3.70,3.03,-6.40,5.87,-0.26,
17:58:31:057,-5.45,-3.70,3.03,-6.21,5.67,0.19,
17:58:31:061,-3.99,-2.82,2.98,-6.21,5.67,0.19,
17:58:31:061,-3.99,-2.82,2.98,-6.01,5.38,0.64,
17:58:31:065,-3.99,-2.82,2.98,-5.80,5.02,1.05,
17:58:31:065,-2.15,-1.90,3.45,-5.80,5.02,1.05,
17:58:31:069,-2.15,-1.90,3.45,-5.58,4.60,1.40,
17:58:31:070,-0.18,-1.04,4.56,-5.58,4.60,1.40,
17:58:31:075,-0.18,-1.04,4.56,-5.33,4.09,1.69,
17:58:31:076,1.74,-0.22,5.26,-5.33,4.09,1.69,
17:58:31:080,3.45,0.39,5.59,-5.33,4.09,1.69,
17:58:31:081,3.45,0.39,5.59,-5.05,3.67,1.91,
17:58:31:085,3.45,0.39,5.59,-4.75,3.34,2.10,
17:58:31:086,5.38,1.40,6.41,-4.75,3.34,2.10,
17:58:31:090,5.38,1.40,6.41,-4.40,3.09,2.24,
17:58:31:091,6.51,1.93,6.28,-4.40,3.09,2.24,
17:58:31:095,6.51,1.93,6.28,-4.04,3.10,2.36,
17:58:31:096,7.22,2.05,5.75,-4.04,3.10,2.36,
17:58:31:100,8.18,2.51,6.31,-4.04,3.10,2.36,
17:58:31:101,8.18,2.51,6.31,-3.67,3.29,2.47,
17:58:31:104,8.91,3.29,6.95,-3.67,3.29,2.47,
17:58:31:105,8.91,3.29,6.95,-3.28,3.53,2.56,
17:58:31:109,8.91,3.29,6.95,-2.83,3.80,2.62,
17:58:31:111,9.89,4.53,8.12,-2.83,3.80,2.62,
17:58:31:114,9.89,4.53,8.12,-2.30,3.96,2.66,
17:58:31:115,10.83,5.91,9.60,-2.30,3.96,2.66,
17:58:31:119,10.83,5.91,9.60,-1.70,3.93,2.66,
17:58:31:120,12.14,7.16,10.87,-1.70,3.93,2.66,
17:58:31:124,12.14,7.16,10.87,-1.08,3.69,2.59,
17:58:31:124,13.69,8.46,11.85,-1.08,3.69,2.59,
17:58:31:128,15.24,9.75,11.56,-1.08,3.69,2.59,
17:58:31:129,15.24,9.75,11.56,-0.42,3.27,2.45,
17:58:31:134,16.23,10.61,11.14,-0.42,3.27,2.45,
17:58:31:135,16.23,10.61,11.14,0.20,2.73,2.28,
17:58:31:139,16.23,10.61,11.14,0.76,2.05,2.07,
17:58:31:140,16.18,11.75,11.42,0.76,2.05,2.07,
17:58:31:143,16.12,13.23,12.11,0.76,2.05,2.07,
17:58:31:144,16.12,13.23,12.11,1.32,1.24,1.87,
17:58:31:148,16.12,13.23,12.11,1.90,0.30,1.64,
17:58:31:149,14.98,14.45,12.31,1.90,0.30,1.64,
17:58:31:152,11.70,14.51,10.40,1.90,0.30,1.64,
17:58:31:153,11.70,14.51,10.40,2.51,-0.66,1.43,
17:58:31:157,8.06,14.03,7.71,2.51,-0.66,1.43,
17:58:31:158,8.06,14.03,7.71,3.04,-1.44,1.32,
17:58:31:163,5.37,12.91,4.33,3.04,-1.44,1.32,
17:58:31:164,5.37,12.91,4.33,3.50,-2.00,1.35,
17:58:31:167,3.39,11.30,0.95,3.50,-2.00,1.35,
17:58:31:168,3.39,11.30,0.95,3.86,-2.28,1.46,
17:58:31:172,3.39,11.30,0.95,4.12,-2.30,1.58,
17:58:31:172,2.28,9.62,-1.43,4.12,-2.30,1.58,
17:58:31:176,1.78,7.90,-3.60,4.12,-2.30,1.58,
17:58:31:177,1.78,7.90,-3.60,4.29,-2.20,1.68,
17:58:31:182,1.80,6.24,-4.84,4.29,-2.20,1.68,
17:58:31:183,1.80,6.24,-4.84,4.35,-2.03,1.72,
17:58:31:187,1.93,4.78,-5.68,4.35,-2.03,1.72,
17:58:31:188,1.93,4.78,-5.68,4.31,-1.90,1.68,
17:58:31:192,2.14,3.71,-6.27,4.31,-1.90,1.68,
17:58:31:192,2.14,3.71,-6.27,4.19,-1.84,1.55,
17:58:31:196,2.14,3.71,-6.27,4.01,-1.85,1.34,
17:58:31:197,2.38,2.78,-6.80,4.01,-1.85,1.34,
17:58:31:201,2.38,2.78,-6.80,3.75,-1.95,1.05,
17:58:31:202,2.37,2.45,-7.91,3.75,-1.95,1.05,
17:58:31:234,2.37,2.45,-7.91,3.42,-2.02,0.73,
17:58:31:235,1.57,2.23,-9.49,3.42,-2.02,0.73,
17:58:31:236,1.57,2.23,-9.49,3.01,-1.98,0.41,
17:58:31:237,0.43,2.20,-10.44,3.01,-1.98,0.41,
17:58:31:238,0.43,2.20,-10.44,2.54,-1.84,0.09,
17:58:31:239,-0.41,2.34,-10.72,2.54,-1.84,0.09,
17:58:31:239,-1.05,2.33,-10.88,2.54,-1.84,0.09,
17:58:31:240,-1.05,2.33,-10.88,2.07,-1.66,-0.22,
17:58:31:241,-1.79,2.47,-10.60,2.07,-1.66,-0.22,
17:58:31:241,-1.79,2.47,-10.60,1.59,-1.41,-0.53,
17:58:31:242,-1.79,2.47,-10.60,1.13,-1.10,-0.82,
17:58:31:242,-2.53,2.41,-9.89,1.13,-1.10,-0.82,
17:58:31:243,-2.53,2.41,-9.89,0.72,-0.77,-1.08,
17:58:31:244,-3.23,2.13,-8.71,0.72,-0.77,-1.08,
17:58:31:244,-3.23,2.13,-8.71,0.37,-0.47,-1.29,
17:58:31:245,-3.82,1.78,-7.56,0.37,-0.47,-1.29,
17:58:31:245,-3.82,1.78,-7.56,0.09,-0.19,-1.48,
17:58:31:246,-4.20,1.57,-6.50,0.09,-0.19,-1.48,
17:58:31:249,-4.20,1.57,-6.50,-0.12,0.07,-1.64,
17:58:31:250,-4.71,1.35,-5.71,-0.12,0.07,-1.64,
17:58:31:254,-4.71,1.35,-5.71,-0.25,0.36,-1.79,
17:58:31:255,-5.46,0.66,-5.13,-0.25,0.36,-1.79,
17:58:31:259,-5.46,0.66,-5.13,-0.34,0.71,-1.94,
17:58:31:260,-6.52,0.75,-4.62,-0.34,0.71,-1.94,
17:58:31:264,-7.72,0.57,-3.16,-0.34,0.71,-1.94,
17:58:31:265,-7.72,0.57,-3.16,-0.37,1.04,-2.03,
17:58:31:270,-7.72,0.57,-3.16,-0.38,1.27,-2.11,
17:58:31:271,-8.32,0.06,-3.08,-0.38,1.27,-2.11,
17:58:31:274,-8.32,0.06,-3.08,-0.39,1.49,-2.18,
17:58:31:275,-8.35,-0.10,-2.27,-0.39,1.49,-2.18,
17:58:31:283,-8.35,-0.10,-2.27,-0.37,1.62,-2.22,
17:58:31:284,-8.57,-0.78,-1.64,-0.37,1.62,-2.22,
17:58:31:284,-8.57,-0.78,-1.64,-0.35,1.65,-2.26,
17:58:31:285,-8.77,-1.23,-1.02,-0.35,1.65,-2.26,
17:58:31:288,-8.77,-1.23,-1.02,-0.32,1.60,-2.29,
17:58:31:289,-9.50,-1.76,-0.22,-0.32,1.60,-2.29,
17:58:31:296,-9.50,-1.76,-0.22,-0.29,1.46,-2.29,
17:58:31:298,-10.32,-2.01,0.18,-0.29,1.46,-2.29,
17:58:31:299,-11.09,-1.68,0.25,-0.29,1.46,-2.29,
17:58:31:302,-11.09,-1.68,0.25,-0.27,1.26,-2.24,
17:58:31:303,-11.09,-1.68,0.25,-0.25,1.06,-2.14,
17:58:31:304,-12.24,-1.12,0.17,-0.25,1.06,-2.14,
17:58:31:307,-13.58,-0.60,0.01,-0.25,1.06,-2.14,
17:58:31:308,-13.58,-0.60,0.01,-0.25,0.87,-1.97,
17:58:31:312,-13.58,-0.60,0.01,-0.26,0.72,-1.73,
17:58:31:313,-14.72,-0.23,-0.09,-0.26,0.72,-1.73,
17:58:31:317,-15.25,0.05,-0.10,-0.26,0.72,-1.73,
17:58:31:318,-15.25,0.05,-0.10,-0.24,0.58,-1.43,
17:58:31:322,-15.25,0.05,-0.10,-0.18,0.45,-1.10,
17:58:31:323,-15.67,0.04,0.12,-0.18,0.45,-1.10,
17:58:31:327,-15.67,0.04,0.12,-0.08,0.34,-0.73,
17:58:31:328,-15.88,-0.38,0.49,-0.08,0.34,-0.73,
17:58:31:331,-15.88,-0.38,0.49,0.08,0.23,-0.36,
17:58:31:332,-15.22,-0.97,1.04,0.08,0.23,-0.36,
17:58:31:337,-15.22,-0.97,1.04,0.28,0.05,-0.01,
17:58:31:338,-13.55,-1.55,1.18,0.28,0.05,-0.01,
17:58:31:342,-11.31,-2.23,1.30,0.28,0.05,-0.01,
17:58:31:343,-11.31,-2.23,1.30,0.53,-0.14,0.26,
17:58:31:346,-9.10,-3.09,1.02,0.53,-0.14,0.26,
17:58:31:347,-9.10,-3.09,1.02,0.81,-0.35,0.45,
17:58:31:354,-9.10,-3.09,1.02,1.08,-0.60,0.53,
17:58:31:354,-7.09,-3.92,-0.16,1.08,-0.60,0.53,
17:58:31:356,-7.09,-3.92,-0.16,1.31,-0.85,0.52,
17:58:31:357,-5.48,-4.49,-1.84,1.31,-0.85,0.52,
17:58:31:362,-4.73,-4.85,-3.87,1.31,-0.85,0.52,
17:58:31:363,-4.73,-4.85,-3.87,1.42,-1.15,0.46,
17:58:31:366,-4.90,-5.18,-6.28,1.42,-1.15,0.46,
17:58:31:367,-4.90,-5.18,-6.28,1.38,-1.52,0.40,
17:58:31:370,-4.90,-5.18,-6.28,1.18,-1.94,0.36,
17:58:31:371,-5.53,-5.32,-8.95,1.18,-1.94,0.36,
17:58:31:378,-6.38,-5.16,-11.42,1.18,-1.94,0.36,
17:58:31:379,-6.38,-5.16,-11.42,0.85,-2.34,0.32,
17:58:31:380,-6.38,-5.16,-11.42,0.41,-2.65,0.31,
17:58:31:380,-7.41,-4.71,-13.09,0.41,-2.65,0.31,
17:58:31:385,-8.08,-4.26,-13.70,0.41,-2.65,0.31,
17:58:31:385,-8.08,-4.26,-13.70,-0.10,-2.85,0.32,
17:58:31:390,-8.08,-4.26,-13.70,-0.62,-2.95,0.36,
17:58:31:391,-8.33,-3.97,-13.22,-0.62,-2.95,0.36,
17:58:31:395,-8.33,-3.97,-13.22,-1.11,-3.02,0.40,
17:58:31:397,-8.16,-3.81,-11.92,-1.11,-3.02,0.40,
17:58:31:399,-8.16,-3.81,-11.92,-1.55,-3.13,0.45,
17:58:31:400,-7.52,-3.48,-10.63,-1.55,-3.13,0.45,
17:58:31:404,-6.75,-3.18,-9.04,-1.55,-3.13,0.45,
17:58:31:405,-6.75,-3.18,-9.04,-1.92,-3.22,0.49,
17:58:31:409,-5.87,-2.67,-6.90,-1.92,-3.22,0.49,
17:58:31:412,-5.87,-2.67,-6.90,-2.20,-3.31,0.51,
17:58:31:414,-4.78,-2.03,-4.21,-2.20,-3.31,0.51,
17:58:31:415,-4.78,-2.03,-4.21,-2.38,-3.46,0.53,
17:58:31:421,-4.78,-2.03,-4.21,-2.46,-3.72,0.54,
17:58:31:421,-3.73,-1.55,-1.89,-2.46,-3.72,0.54,
17:58:31:424,-2.85,-1.10,-0.53,-2.46,-3.72,0.54,
17:58:31:424,-2.85,-1.10,-0.53,-2.45,-4.03,0.52,
17:58:31:428,-1.96,-0.49,0.23,-2.45,-4.03,0.52,
17:58:31:429,-1.96,-0.49,0.23,-2.35,-4.27,0.49,
17:58:31:447,-1.01,0.25,1.26,-2.35,-4.27,0.49,
17:58:31:448,-1.01,0.25,1.26,-2.20,-4.44,0.45,
17:58:31:449,-1.01,0.25,1.26,-2.01,-4.60,0.40,
17:58:31:449,-0.61,1.14,1.89,-2.01,-4.60,0.40,
17:58:31:449,-0.61,1.14,1.89,-1.81,-4.75,0.36,
17:58:31:450,-0.82,2.33,1.89,-1.81,-4.75,0.36,
17:58:31:480,-0.82,2.33,1.89,-1.62,-4.85,0.37,
17:58:31:482,-0.97,3.68,1.39,-1.62,-4.85,0.37,
17:58:31:482,-0.82,5.13,0.37,-1.62,-4.85,0.37,
17:58:31:483,-0.82,5.13,0.37,-1.43,-4.86,0.42,
17:58:31:483,-0.82,5.13,0.37,-1.27,-4.78,0.52,
17:58:31:484,0.19,6.55,-1.06,-1.27,-4.78,0.52,
17:58:31:485,2.03,7.94,-2.76,-1.27,-4.78,0.52,
17:58:31:485,2.03,7.94,-2.76,-1.15,-4.62,0.62,
17:58:31:486,4.34,9.01,-4.63,-1.15,-4.62,0.62,
17:58:31:487,4.34,9.01,-4.63,-1.08,-4.38,0.69,
17:58:31:487,6.53,9.80,-6.73,-1.08,-4.38,0.69,
17:58:31:488,6.53,9.80,-6.73,-1.07,-4.08,0.70,
17:58:31:488,6.53,9.80,-6.73,-1.11,-3.71,0.68,
17:58:31:489,9.15,10.84,-8.65,-1.11,-3.71,0.68,
17:58:31:489,12.20,11.46,-10.31,-1.11,-3.71,0.68,
17:58:31:490,12.20,11.46,-10.31,-1.19,-3.26,0.61,
17:58:31:491,15.14,11.50,-11.01,-1.19,-3.26,0.61,
17:58:31:491,15.14,11.50,-11.01,-1.31,-2.74,0.49,
17:58:31:494,17.69,10.84,-10.89,-1.31,-2.74,0.49,
17:58:31:495,17.69,10.84,-10.89,-1.44,-2.20,0.34,
17:58:31:496,17.69,10.84,-10.89,-1.58,-1.73,0.19,
17:58:31:497,19.84,9.76,-9.87,-1.58,-1.73,0.19,
17:58:31:502,19.84,9.76,-9.87,-1.70,-1.41,0.06,
17:58:31:502,20.62,8.83,-8.63,-1.70,-1.41,0.06,
17:58:31:506,20.62,8.83,-8.63,-1.80,-1.22,0.03,
17:58:31:507,21.00,8.06,-7.33,-1.80,-1.22,0.03,
17:58:31:511,21.31,7.68,-5.34,-1.80,-1.22,0.03,
17:58:31:512,21.31,7.68,-5.34,-1.88,-1.20,-0.00,
17:58:31:517,21.31,7.68,-5.34,-1.92,-1.26,0.02,
17:58:31:518,20.48,7.29,-4.11,-1.92,-1.26,0.02,
17:58:31:521,19.77,6.65,-2.38,-1.92,-1.26,0.02,
17:58:31:522,19.77,6.65,-2.38,-1.94,-1.39,0.04,
17:58:31:526,19.77,6.65,-2.38,-1.90,-1.50,0.09,
17:58:31:526,17.58,6.07,-2.02,-1.90,-1.50,0.09,
17:58:31:532,15.03,5.72,0.15,-1.90,-1.50,0.09,
17:58:31:533,15.03,5.72,0.15,-1.83,-1.54,0.17,
17:58:31:535,15.03,5.72,0.15,-1.71,-1.57,0.31,
17:58:31:536,12.12,4.95,-0.12,-1.71,-1.57,0.31,
17:58:31:540,12.12,4.95,-0.12,-1.59,-1.47,0.49,
17:58:31:541,9.05,4.57,0.25,-1.59,-1.47,0.49,
17:58:31:545,5.83,3.86,0.17,-1.59,-1.47,0.49,
17:58:31:546,5.83,3.86,0.17,-1.50,-1.32,0.74,
17:58:31:550,3.07,3.35,-0.46,-1.50,-1.32,0.74,
17:58:31:551,3.07,3.35,-0.46,-1.49,-1.14,1.02,
17:58:31:555,3.07,3.35,-0.46,-1.56,-0.96,1.30,
17:58:31:555,0.18,2.28,-0.68,-1.56,-0.96,1.30,
17:58:31:560,0.18,2.28,-0.68,-1.69,-0.80,1.56,
17:58:31:561,-1.90,1.13,-2.09,-1.69,-0.80,1.56,
17:58:31:564,-1.90,1.13,-2.09,-1.88,-0.58,1.76,
17:58:31:565,-2.92,0.05,-2.75,-1.88,-0.58,1.76,
17:58:31:571,-2.92,0.05,-2.75,-2.09,-0.32,1.85,
17:58:31:571,-3.52,-0.97,-5.11,-2.09,-0.32,1.85,
17:58:31:574,-3.52,-0.97,-5.11,-2.30,0.16,1.85,
17:58:31:575,-4.27,-1.99,-6.80,-2.30,0.16,1.85,
17:58:31:580,-4.67,-2.69,-8.03,-2.30,0.16,1.85,
17:58:31:580,-4.67,-2.69,-8.03,-2.53,0.77,1.78,
17:58:31:584,-5.13,-3.52,-9.48,-2.53,0.77,1.78,
17:58:31:585,-5.13,-3.52,-9.48,-2.74,1.53,1.67,
17:58:31:588,-5.13,-3.52,-9.48,-3.00,2.42,1.52,
17:58:31:589,-6.43,-4.22,-9.02,-3.00,2.42,1.52,
17:58:31:594,-7.27,-4.64,-8.63,-3.00,2.42,1.52,
17:58:31:594,-7.27,-4.64,-8.63,-3.30,3.22,1.37,
17:58:31:598,-8.56,-4.86,-10.13,-3.30,3.22,1.37,
17:58:31:599,-8.56,-4.86,-10.13,-3.67,3.91,1.21,
17:58:31:603,-8.56,-4.86,-10.13,-4.10,4.58,1.05,
17:58:31:604,-9.66,-5.04,-8.12,-4.10,4.58,1.05,
17:58:31:608,-9.66,-5.04,-8.12,-4.47,5.03,0.91,
17:58:31:610,-9.62,-5.68,-6.12,-4.47,5.03,0.91,
17:58:31:615,-9.62,-5.68,-6.12,-4.65,5.45,0.75,
17:58:31:616,-9.83,-6.88,-4.26,-4.65,5.45,0.75,
17:58:31:617,-9.83,-6.88,-4.26,-4.68,5.97,0.56,
17:58:31:618,-8.79,-8.15,-3.21,-4.68,5.97,0.56,
17:58:31:623,-8.79,-8.15,-3.21,-4.60,6.55,0.30,
17:58:31:624,-7.39,-8.85,-1.41,-4.60,6.55,0.30,
17:58:31:627,-6.39,-9.39,-0.81,-4.60,6.55,0.30,
17:58:31:629,-6.39,-9.39,-0.81,-4.42,7.08,-0.03,
17:58:31:633,-6.39,-9.39,-0.81,-4.19,7.53,-0.36,
17:58:31:634,-7.86,-8.89,1.94,-4.19,7.53,-0.36,
17:58:31:638,-9.64,-8.95,4.91,-4.19,7.53,-0.36,
17:58:31:638,-9.64,-8.95,4.91,-3.88,7.73,-0.54,
17:58:31:642,-9.64,-8.95,4.91,-3.53,7.62,-0.67,
17:58:31:643,-10.99,-8.38,5.83,-3.53,7.62,-0.67,
17:58:31:646,-10.99,-8.38,5.83,-3.24,7.35,-0.76,
17:58:31:647,-12.00,-7.37,5.42,-3.24,7.35,-0.76,
17:58:31:659,-12.27,-6.60,4.81,-3.24,7.35,-0.76,
17:58:31:660,-12.27,-6.60,4.81,-3.03,6.94,-0.80,
17:58:31:661,-12.27,-6.60,4.81,-2.87,6.38,-0.80,
17:58:31:662,-12.27,-6.06,4.28,-2.87,6.38,-0.80,
17:58:31:667,-11.99,-5.72,2.86,-2.87,6.38,-0.80,
17:58:31:668,-11.99,-5.72,2.86,-2.75,5.78,-0.74,
17:58:31:668,-11.73,-6.03,2.88,-2.75,5.78,-0.74,
17:58:31:669,-11.73,-6.03,2.88,-2.66,5.25,-0.60,
17:58:31:671,-11.73,-6.03,2.88,-2.57,4.74,-0.44,
17:58:31:672,-10.56,-6.51,2.89,-2.57,4.74,-0.44,
17:58:31:678,-9.44,-6.71,2.96,-2.57,4.74,-0.44,
17:58:31:679,-9.44,-6.71,2.96,-2.46,4.24,-0.30,
17:58:31:681,-9.44,-6.71,2.96,-2.31,3.79,-0.18,
17:58:31:681,-8.81,-6.51,3.18,-2.31,3.79,-0.18,
17:58:31:686,-8.55,-6.21,3.42,-2.31,3.79,-0.18,
17:58:31:686,-8.55,-6.21,3.42,-2.11,3.37,-0.08,
17:58:31:723,-8.61,-6.13,3.63,-2.11,3.37,-0.08,
17:58:31:724,-8.61,-6.13,3.63,-1.86,2.99,0.02,
17:58:31:725,-8.61,-6.13,3.63,-1.60,2.60,0.14,
17:58:31:726,-8.90,-6.45,3.29,-1.60,2.60,0.14,
17:58:31:726,-8.90,-6.45,3.29,-1.36,2.22,0.28,
17:58:31:727,-9.14,-6.61,2.70,-1.36,2.22,0.28,
17:58:31:728,-9.69,-6.16,1.49,-1.36,2.22,0.28,
17:58:31:728,-9.69,-6.16,1.49,-1.14,1.86,0.45,
17:58:31:729,-9.69,-6.16,1.49,-0.99,1.55,0.67,
17:58:31:730,-9.44,-6.16,-0.19,-0.99,1.55,0.67,
17:58:31:731,-9.44,-6.16,-0.19,-0.88,1.32,0.85,
17:58:31:732,-9.56,-6.57,-1.11,-0.88,1.32,0.85,
17:58:31:733,-9.56,-6.57,-1.11,-0.78,1.20,1.05,
17:58:31:733,-9.45,-6.50,-1.11,-0.78,1.20,1.05,
17:58:31:734,-8.28,-6.93,-0.71,-0.78,1.20,1.05,
17:58:31:735,-8.28,-6.93,-0.71,-0.70,1.09,1.26,
17:58:31:736,-8.28,-6.93,-0.71,-0.60,0.93,1.37,
17:58:31:736,-7.19,-7.66,-0.35,-0.60,0.93,1.37,
17:58:31:737,-7.19,-7.66,-0.35,-0.52,0.80,1.39,
17:58:31:738,-6.38,-7.78,-0.57,-0.52,0.80,1.39,
17:58:31:739,-6.38,-7.78,-0.57,-0.43,0.78,1.40,
17:58:31:740,-6.06,-7.78,-0.05,-0.43,0.78,1.40,
17:58:31:744,-6.06,-7.78,-0.05,-0.29,0.81,1.38,
17:58:31:745,-6.13,-7.91,-0.08,-0.29,0.81,1.38,
17:58:31:749,-6.13,-7.91,-0.08,-0.08,0.91,1.37,
17:58:31:749,-6.65,-7.47,0.21,-0.08,0.91,1.37,
17:58:31:754,-6.65,-7.47,0.21,0.18,1.08,1.41,
17:58:31:755,-7.28,-6.77,0.40,0.18,1.08,1.41,
17:58:31:761,-7.28,-6.77,0.40,0.44,1.23,1.52,
17:58:31:767,-7.63,-6.21,0.07,0.44,1.23,1.52,
17:58:31:767,-7.63,-6.21,0.07,0.65,1.35,1.70,
17:58:31:768,-8.91,-4.94,1.24,0.65,1.35,1.70,
17:58:31:771,-8.91,-4.94,1.24,0.86,1.50,1.97,
17:58:31:773,-10.27,-5.54,1.82,0.86,1.50,1.97,
17:58:31:775,-10.27,-5.54,1.82,1.07,1.60,2.26,
17:58:31:777,-7.09,-6.25,2.92,1.07,1.60,2.26,
17:58:31:778,-7.09,-6.25,2.92,1.26,1.45,2.48,
17:58:31:779,-6.17,-5.92,3.44,1.26,1.45,2.48,
17:58:31:782,-6.17,-5.92,3.44,1.46,1.28,2.69,
17:58:31:783,-6.35,-5.72,5.01,1.46,1.28,2.69,
17:58:31:789,-6.35,-5.72,5.01,1.65,1.08,2.95,
17:58:31:790,-4.89,-5.92,5.74,1.65,1.08,2.95,
17:58:31:796,-2.77,-6.43,4.71,1.65,1.08,2.95,
17:58:31:798,-2.77,-6.43,4.71,1.79,0.75,3.20,
17:58:31:798,-0.57,-6.48,2.78,1.79,0.75,3.20,
17:58:31:799,-0.57,-6.48,2.78,1.80,0.35,3.41,
17:58:31:802,-0.57,-6.48,2.78,1.68,0.08,3.55,
17:58:31:804,3.25,-6.23,0.91,1.68,0.08,3.55,
17:58:31:808,3.25,-6.23,0.91,1.42,-0.08,3.61,
17:58:31:810,6.61,-5.41,-0.39,1.42,-0.08,3.61,
17:58:31:812,6.61,-5.41,-0.39,1.10,-0.03,3.60,
17:58:31:812,10.47,-4.53,0.03,1.10,-0.03,3.60,
17:58:31:817,10.47,-4.53,0.03,0.78,0.14,3.49,
17:58:31:818,15.98,-3.73,2.43,0.78,0.14,3.49,
17:58:31:821,15.98,-3.73,2.43,0.57,0.33,3.22,
17:58:31:822,20.44,-2.39,5.70,0.57,0.33,3.22,
17:58:31:827,20.44,-2.39,5.70,0.55,0.62,2.81,
17:58:31:828,24.25,-0.88,9.97,0.55,0.62,2.81,
17:58:31:833,24.25,-0.88,9.97,0.78,0.88,2.29,
17:58:31:834,25.98,1.15,13.94,0.78,0.88,2.29,
17:58:31:836,25.98,1.15,13.94,1.25,1.01,1.73,
17:58:31:837,27.67,3.15,17.19,1.25,1.01,1.73,
17:58:31:841,27.67,3.15,17.19,1.87,1.01,1.20,
17:58:31:841,26.31,5.52,17.98,1.87,1.01,1.20,
17:58:31:855,26.31,5.52,17.98,2.47,0.96,0.84,
17:58:31:856,22.85,8.14,17.16,2.47,0.96,0.84,
17:58:31:857,22.85,8.14,17.16,2.96,0.97,0.70,
17:58:31:858,20.90,9.49,14.70,2.96,0.97,0.70,
17:58:31:858,18.61,10.70,12.37,2.96,0.97,0.70,
17:58:31:859,18.61,10.70,12.37,3.26,0.99,0.77,
17:58:31:861,20.43,11.38,11.50,3.26,0.99,0.77,
17:58:31:862,20.43,11.38,11.50,3.38,0.87,0.94,
17:58:31:865,20.43,11.38,11.50,3.36,0.63,1.06,
17:58:31:866,19.21,11.07,11.37,3.36,0.63,1.06,
17:58:31:870,19.21,11.07,11.37,3.31,0.32,1.14,
17:58:31:871,19.87,9.99,10.27,3.31,0.32,1.14,
17:58:31:875,19.87,9.99,10.27,3.27,0.12,1.16,
17:58:31:876,18.79,7.30,7.97,3.27,0.12,1.16,
17:58:31:880,18.79,7.30,7.97,3.28,0.26,1.06,
17:58:31:880,20.87,5.32,7.38,3.28,0.26,1.06,
17:58:31:885,20.87,5.32,7.38,3.37,0.51,0.76,
17:58:31:886,19.98,2.85,7.96,3.37,0.51,0.76,
17:58:31:889,19.30,-0.25,5.60,3.37,0.51,0.76,
17:58:31:891,19.30,-0.25,5.60,3.51,0.73,0.24,
17:58:31:895,19.30,-0.25,5.60,3.57,1.01,-0.44,
17:58:31:896,17.23,-1.56,1.64,3.57,1.01,-0.44,
17:58:31:899,17.23,-1.56,1.64,3.50,1.49,-1.10,
17:58:31:900,12.88,-1.97,-0.78,3.50,1.49,-1.10,
17:58:31:904,9.18,-2.32,-2.19,3.50,1.49,-1.10,
17:58:31:905,9.18,-2.32,-2.19,3.29,1.87,-1.67,
17:58:31:910,9.18,-2.32,-2.19,2.91,2.02,-2.17,
17:58:31:911,5.53,-0.77,-5.19,2.91,2.02,-2.17,
17:58:31:914,5.53,-0.77,-5.19,2.47,2.25,-2.48,
17:58:31:914,-0.17,0.91,-5.77,2.47,2.25,-2.48,
17:58:31:921,-0.17,0.91,-5.77,2.15,2.68,-2.55,
17:58:31:922,-3.55,1.37,-4.90,2.15,2.68,-2.55,
17:58:31:923,-5.05,1.58,-3.48,2.15,2.68,-2.55,
17:58:31:924,-5.05,1.58,-3.48,2.06,3.27,-2.48,
17:58:31:928,-5.61,1.82,-3.41,2.06,3.27,-2.48,
17:58:31:929,-5.61,1.82,-3.41,2.21,4.07,-2.39,
17:58:31:976,-5.61,1.82,-3.41,2.50,4.99,-2.32,
17:58:31:977,-4.98,2.07,-3.40,2.50,4.99,-2.32,
17:58:31:978,-4.98,2.07,-3.40,2.83,5.87,-2.32,
17:58:31:978,-4.40,2.67,-3.84,2.83,5.87,-2.32,
17:58:31:979,-4.40,2.67,-3.84,3.20,6.78,-2.35,
17:58:31:980,-4.15,3.88,-6.01,3.20,6.78,-2.35,
17:58:31:981,-4.25,4.53,-7.73,3.20,6.78,-2.35,
17:58:31:982,-4.25,4.53,-7.73,3.58,7.79,-2.32,
17:58:31:983,-4.25,4.74,-8.33,3.58,7.79,-2.32,
17:58:31:984,-4.25,4.74,-8.33,3.91,8.77,-2.21,
17:58:31:984,-4.25,4.74,-8.33,4.19,9.59,-2.06,
17:58:31:985,-4.77,4.20,-6.25,4.19,9.59,-2.06,
17:58:31:987,-6.54,3.46,-5.33,4.19,9.59,-2.06,
17:58:31:989,-6.54,3.46,-5.33,4.44,10.12,-1.85,
17:58:31:991,-6.54,3.46,-5.33,4.61,10.43,-1.56,
17:58:31:992,-7.58,2.45,-5.29,4.61,10.43,-1.56,
17:58:31:992,-7.58,2.45,-5.29,4.66,10.64,-1.17,
17:58:31:995,-9.04,1.19,-5.29,4.66,10.64,-1.17,
17:58:31:996,-9.04,1.19,-5.29,4.62,10.68,-0.76,
17:58:31:997,-9.90,0.09,-5.30,4.62,10.68,-0.76,
17:58:31:997,-9.90,0.09,-5.30,4.47,10.56,-0.32,
17:58:31:998,-10.22,-0.66,-5.38,4.47,10.56,-0.32,
17:58:31:998,-10.22,-0.66,-5.38,4.24,10.30,0.13,
17:58:31:999,-9.77,-1.00,-6.96,4.24,10.30,0.13,
17:58:32:000,-9.77,-1.00,-6.96,3.93,10.15,0.56,
17:58:32:000,-9.29,-1.29,-10.59,3.93,10.15,0.56,
17:58:32:001,-9.84,-1.83,-13.47,3.93,10.15,0.56,
17:58:32:001,-9.84,-1.83,-13.47,3.51,10.33,0.95,
17:58:32:002,-10.35,-2.61,-15.61,3.51,10.33,0.95,
17:58:32:002,-10.35,-2.61,-15.61,3.00,10.74,1.30,
17:58:32:006,-10.35,-2.61,-15.61,2.39,11.24,1.64,
17:58:32:007,-11.35,-3.31,-16.74,2.39,11.24,1.64,
17:58:32:012,-12.02,-4.06,-16.42,2.39,11.24,1.64,
17:58:32:013,-12.02,-4.06,-16.42,1.74,11.68,1.98,
17:58:32:018,-12.02,-4.06,-16.42,1.09,11.88,2.34,
17:58:32:019,-12.33,-4.53,-13.96,1.09,11.88,2.34,
17:58:32:022,-12.51,-4.90,-10.05,1.09,11.88,2.34,
17:58:32:023,-12.51,-4.90,-10.05,0.55,11.59,2.77,
17:58:32:030,-12.51,-4.90,-10.05,0.14,10.73,3.27,
17:58:32:032,-12.27,-5.69,-8.63,0.14,10.73,3.27,
17:58:32:034,-11.39,-7.06,-10.30,0.14,10.73,3.27,
17:58:32:035,-11.39,-7.06,-10.30,-0.27,9.53,3.86,
17:58:32:037,-11.39,-7.06,-10.30,-0.85,8.30,4.44,
17:58:32:038,-9.53,-9.23,-15.47,-0.85,8.30,4.44,
17:58:32:040,-9.53,-9.23,-15.47,-1.72,7.41,4.88,
17:58:32:040,-6.58,-10.80,-20.62,-1.72,7.41,4.88,
17:58:32:045,-6.58,-10.80,-20.62,-2.84,6.80,5.13,
17:58:32:045,-2.88,-11.13,-22.87,-2.84,6.80,5.13,
17:58:32:050,-2.88,-11.13,-22.87,-4.09,6.16,5.25,
17:58:32:051,1.29,-10.82,-19.80,-4.09,6.16,5.25,
17:58:32:054,1.29,-10.82,-19.80,-5.09,4.30,5.26,
17:58:32:055,8.90,-8.19,4.43,-5.09,4.30,5.26,
17:58:32:060,8.90,-8.19,4.43,-5.13,-0.68,5.14,
17:58:32:060,15.24,-6.57,13.68,-5.13,-0.68,5.14,
17:58:32:064,20.44,-7.21,-1.68,-5.13,-0.68,5.14,
17:58:32:065,20.44,-7.21,-1.68,-4.70,-5.47,4.91,
17:58:32:069,20.44,-7.21,-1.68,-4.49,-6.77,4.51,
17:58:32:070,20.75,-10.04,-10.93,-4.49,-6.77,4.51,
17:58:32:074,20.75,-10.04,-10.93,-4.26,-5.27,3.91,
17:58:32:075,13.24,-11.29,-5.26,-4.26,-5.27,3.91,
17:58:32:079,13.24,-11.29,-5.26,-3.68,-3.49,3.27,
17:58:32:080,9.62,-10.47,2.97,-3.68,-3.49,3.27,
17:58:32:084,9.62,-10.47,2.97,-2.78,-3.20,2.56,
17:58:32:085,13.75,-11.17,9.23,-2.78,-3.20,2.56,
17:58:32:089,15.40,-11.70,8.22,-2.78,-3.20,2.56,
17:58:32:090,15.40,-11.70,8.22,-1.59,-3.88,1.70,
17:58:32:093,15.40,-11.70,8.22,-0.54,-4.57,0.87,
17:58:32:094,11.84,-11.66,0.30,-0.54,-4.57,0.87,
17:58:32:098,11.84,-11.66,0.30,0.08,-4.89,0.27,
17:58:32:099,9.28,-11.49,-7.42,0.08,-4.89,0.27,
17:58:32:103,9.28,-11.49,-7.42,0.33,-4.80,-0.17,
17:58:32:104,9.68,-10.93,-11.44,0.33,-4.80,-0.17,
17:58:32:108,9.68,-10.93,-11.44,0.39,-4.53,-0.59,
17:58:32:109,9.60,-10.21,-12.53,0.39,-4.53,-0.59,
17:58:32:113,9.60,-10.21,-12.53,0.37,-4.37,-1.02,
17:58:32:115,9.17,-9.49,-12.75,0.37,-4.37,-1.02,
17:58:32:118,9.17,-9.49,-12.75,0.32,-4.32,-1.42,
17:58:32:119,8.97,-8.57,-13.14,0.32,-4.32,-1.42,
17:58:32:123,8.67,-7.48,-13.36,0.32,-4.32,-1.42,
17:58:32:124,8.67,-7.48,-13.36,0.25,-4.21,-1.79,
17:58:32:128,8.67,-7.48,-13.36,0.16,-3.97,-2.09,
17:58:32:129,7.85,-5.99,-13.34,0.16,-3.97,-2.09,
17:58:32:133,6.72,-4.12,-13.53,0.16,-3.97,-2.09,
17:58:32:136,6.72,-4.12,-13.53,0.04,-3.60,-2.30,
17:58:32:138,6.72,-4.12,-13.53,-0.15,-3.09,-2.40,
17:58:32:139,5.86,-1.75,-12.47,-0.15,-3.09,-2.40,
17:58:32:145,5.05,0.83,-9.58,-0.15,-3.09,-2.40,
17:58:32:148,5.05,0.83,-9.58,-0.35,-2.61,-2.39,
17:58:32:149,4.07,3.12,-5.57,-0.35,-2.61,-2.39,
17:58:32:150,4.07,3.12,-5.57,-0.46,-2.33,-2.31,
17:58:32:152,4.07,3.12,-5.57,-0.43,-2.28,-2.16,
17:58:32:154,2.48,5.17,-2.11,-0.43,-2.28,-2.16,
17:58:32:158,0.47,7.21,-0.47,-0.43,-2.28,-2.16,
17:58:32:159,0.47,7.21,-0.47,-0.30,-2.37,-1.91,
17:58:32:164,0.47,7.21,-0.47,-0.18,-2.53,-1.56,
17:58:32:165,-1.40,8.65,0.05,-0.18,-2.53,-1.56,
17:58:32:167,-1.60,9.65,0.75,-0.18,-2.53,-1.56,
17:58:32:168,-1.60,9.65,0.75,-0.14,-2.73,-1.13,
17:58:32:173,-1.60,9.65,0.75,-0.20,-3.09,-0.68,
17:58:32:174,-0.50,10.04,1.43,-0.20,-3.09,-0.68,
17:58:32:227,2.42,10.05,0.18,-0.20,-3.09,-0.68,
17:58:32:227,2.42,10.05,0.18,-0.32,-3.61,-0.27,
17:58:32:228,5.12,10.07,-2.64,-0.32,-3.61,-0.27,
17:58:32:229,5.12,10.07,-2.64,-0.53,-4.09,0.02,
17:58:32:230,5.12,10.07,-2.64,-0.85,-4.37,0.17,
17:58:32:230,6.71,10.28,-5.41,-0.85,-4.37,0.17,
17:58:32:231,6.71,10.28,-5.41,-1.26,-4.31,0.23,
17:58:32:231,8.42,10.40,-6.64,-1.26,-4.31,0.23,
17:58:32:232,8.42,10.40,-6.64,-1.71,-3.99,0.20,
17:58:32:232,10.38,10.01,-5.17,-1.71,-3.99,0.20,
17:58:32:233,10.38,10.01,-5.17,-2.10,-3.55,0.07,
17:58:32:234,12.79,9.36,-2.56,-2.10,-3.55,0.07,
17:58:32:235,12.79,9.36,-2.56,-2.39,-3.07,-0.17,
17:58:32:235,14.52,8.51,0.27,-2.39,-3.07,-0.17,
17:58:32:236,14.52,8.51,0.27,-2.56,-2.55,-0.48,
17:58:32:237,15.08,7.14,3.75,-2.56,-2.55,-0.48,
17:58:32:237,15.08,7.14,3.75,-2.60,-2.06,-0.79,
17:58:32:238,13.95,5.57,7.65,-2.60,-2.06,-0.79,
17:58:32:238,13.95,5.57,7.65,-2.55,-1.60,-1.01,
17:58:32:239,12.57,4.48,11.80,-2.55,-1.60,-1.01,
17:58:32:240,10.72,4.08,14.71,-2.55,-1.60,-1.01,
17:58:32:240,10.72,4.08,14.71,-2.44,-1.23,-1.15,
17:58:32:241,10.72,4.08,14.71,-2.32,-0.96,-1.26,
17:58:32:241,9.27,3.62,18.32,-2.32,-0.96,-1.26,
17:58:32:242,9.27,3.62,18.32,-2.15,-0.83,-1.38,
17:58:32:242,7.86,3.20,20.99,-2.15,-0.83,-1.38,
17:58:32:244,7.86,3.20,20.99,-1.94,-0.77,-1.50,
17:58:32:244,6.06,2.92,21.99,-1.94,-0.77,-1.50,
17:58:32:245,6.06,2.92,21.99,-1.72,-0.75,-1.60,
17:58:32:245,4.24,3.77,23.19,-1.72,-0.75,-1.60,
17:58:32:249,4.24,3.77,23.19,-1.53,-0.86,-1.58,
17:58:32:250,2.49,4.34,22.92,-1.53,-0.86,-1.58,
17:58:32:254,1.02,4.07,21.10,-1.53,-0.86,-1.58,
17:58:32:254,1.02,4.07,21.10,-1.36,-1.07,-1.47,
17:58:32:258,-0.36,3.86,18.88,-1.36,-1.07,-1.47,
17:58:32:259,-0.36,3.86,18.88,-1.23,-1.29,-1.33,
17:58:32:263,-0.36,3.86,18.88,-1.16,-1.49,-1.18,
17:58:32:264,-1.61,3.72,16.36,-1.16,-1.49,-1.18,
17:58:32:269,-2.39,3.39,13.68,-1.16,-1.49,-1.18,
17:58:32:270,-2.39,3.39,13.68,-1.14,-1.67,-1.00,
17:58:32:272,-2.39,3.39,13.68,-1.16,-1.86,-0.82,
17:58:32:273,-3.10,3.09,10.82,-1.16,-1.86,-0.82,
17:58:32:279,-3.10,3.09,10.82,-1.19,-2.03,-0.65,
17:58:32:280,-3.59,2.65,7.80,-1.19,-2.03,-0.65,
17:58:32:283,-4.21,2.14,4.87,-1.19,-2.03,-0.65,
17:58:32:283,-4.21,2.14,4.87,-1.23,-2.16,-0.48,
17:58:32:287,-4.89,1.63,2.01,-1.23,-2.16,-0.48,
17:58:32:288,-4.89,1.63,2.01,-1.27,-2.21,-0.32,
17:58:32:293,-5.42,1.41,-0.73,-1.27,-2.21,-0.32,
17:58:32:294,-5.42,1.41,-0.73,-1.30,-2.15,-0.16,
17:58:32:297,-5.42,1.41,-0.73,-1.32,-1.98,-0.00,
17:58:32:298,-6.05,1.45,-3.21,-1.32,-1.98,-0.00,
17:58:32:303,-6.46,1.31,-5.48,-1.32,-1.98,-0.00,
17:58:32:304,-6.46,1.31,-5.48,-1.33,-1.67,0.17,
17:58:32:308,-6.46,1.31,-5.48,-1.33,-1.23,0.36,
17:58:32:309,-6.66,0.87,-7.11,-1.33,-1.23,0.36,
17:58:32:312,-6.66,0.87,-7.11,-1.32,-0.64,0.54,
17:58:32:313,-6.53,-0.44,-9.25,-1.32,-0.64,0.54,
17:58:32:318,-6.53,-0.44,-9.25,-1.28,0.14,0.65,
17:58:32:319,-5.79,-0.52,-8.66,-1.28,0.14,0.65,
17:58:32:323,-5.07,-0.59,-8.10,-1.28,0.14,0.65,
17:58:32:324,-5.07,-0.59,-8.10,-1.23,0.88,0.74,
17:58:32:327,-4.66,-1.58,-7.07,-1.23,0.88,0.74,
17:58:32:328,-4.66,-1.58,-7.07,-1.16,1.59,0.82,
17:58:32:334,-4.66,-1.58,-7.07,-1.03,2.31,0.87,
17:58:32:336,-4.24,-3.08,-5.52,-1.03,2.31,0.87,
17:58:32:337,-3.47,-4.41,-3.69,-1.03,2.31,0.87,
17:58:32:338,-3.47,-4.41,-3.69,-0.82,3.08,0.86,
17:58:32:342,-2.94,-5.31,-1.33,-0.82,3.08,0.86,
17:58:32:344,-2.94,-5.31,-1.33,-0.55,3.84,0.78,
17:58:32:347,-2.67,-5.99,0.74,-0.55,3.84,0.78,
17:58:32:348,-2.67,-5.99,0.74,-0.25,4.46,0.65,
17:58:32:353,-2.27,-6.63,1.83,-0.25,4.46,0.65,
17:58:32:354,-2.27,-6.63,1.83,0.03,4.92,0.50,
17:58:32:356,-2.99,-7.07,3.05,0.03,4.92,0.50,
17:58:32:357,-2.99,-7.07,3.05,0.25,5.21,0.32,
17:58:32:362,-2.99,-7.07,3.05,0.44,5.39,0.15,
17:58:32:364,-3.49,-7.40,4.54,0.44,5.39,0.15,
17:58:32:366,-3.49,-7.40,4.54,0.61,5.42,0.02,
17:58:32:367,-4.22,-7.31,6.82,0.61,5.42,0.02,
17:58:32:371,-4.22,-7.31,6.82,0.82,5.21,-0.07,
17:58:32:372,-5.24,-7.04,7.82,0.82,5.21,-0.07,
17:58:32:376,-5.24,-7.04,7.82,1.03,4.87,-0.10,
17:58:32:377,-5.73,-6.89,8.00,1.03,4.87,-0.10,
17:58:32:382,-5.73,-6.89,8.00,1.24,4.44,-0.09,
17:58:32:383,-6.42,-6.85,7.19,1.24,4.44,-0.09,
17:58:32:386,-6.79,-6.93,5.47,1.24,4.44,-0.09,
17:58:32:387,-6.79,-6.93,5.47,1.43,4.00,-0.04,
17:58:32:391,-6.79,-6.93,5.47,1.58,3.62,0.03,
17:58:32:392,-6.48,-6.99,3.03,1.58,3.62,0.03,
17:58:32:395,-6.48,-6.99,3.03,1.71,3.34,0.08,
17:58:32:396,-5.61,-7.10,1.42,1.71,3.34,0.08,
17:58:32:401,-5.26,-7.15,-0.76,1.71,3.34,0.08,
17:58:32:402,-5.26,-7.15,-0.76,1.86,3.10,0.09,
17:58:32:405,-4.84,-7.56,-3.23,1.86,3.10,0.09,
17:58:32:406,-4.84,-7.56,-3.23,2.01,2.97,0.06,
17:58:32:411,-4.84,-7.56,-3.23,2.16,2.99,0.00,
17:58:32:413,-5.24,-8.15,-5.19,2.16,2.99,0.00,
17:58:32:414,-5.24,-8.15,-5.19,2.31,3.15,-0.07,
17:58:32:416,-5.85,-8.73,-7.01,2.31,3.15,-0.07,
17:58:32:458,-5.85,-8.73,-7.01,2.46,3.42,-0.12,
17:58:32:459,-5.07,-9.26,-8.47,2.46,3.42,-0.12,
17:58:32:459,-4.81,-9.80,-10.06,2.46,3.42,-0.12,
17:58:32:460,-4.81,-9.80,-10.06,2.57,3.68,-0.18,
17:58:32:460,-4.81,-9.80,-10.06,2.65,3.90,-0.24,
17:58:32:461,-4.48,-10.37,-11.90,2.65,3.90,-0.24,
17:58:32:462,-4.48,-10.37,-11.90,2.69,4.17,-0.32,
17:58:32:462,-4.41,-10.75,-13.61,2.69,4.17,-0.32,
17:58:32:463,-4.41,-10.75,-13.61,2.70,4.51,-0.40,
17:58:32:464,-4.84,-10.94,-14.70,2.70,4.51,-0.40,
17:58:32:464,-5.38,-10.97,-15.28,2.70,4.51,-0.40,
17:58:32:464,-5.38,-10.97,-15.28,2.70,4.91,-0.46,
17:58:32:465,-5.38,-10.97,-15.28,2.69,5.34,-0.50,
17:58:32:466,-5.83,-11.48,-16.13,2.69,5.34,-0.50,
17:58:32:467,-6.76,-11.74,-15.73,2.69,5.34,-0.50,
17:58:32:468,-6.76,-11.74,-15.73,2.67,5.84,-0.54,
17:58:32:468,-6.76,-11.74,-15.73,2.63,6.28,-0.55,
17:58:32:468,-7.53,-11.21,-15.14,2.63,6.28,-0.55,
17:58:32:469,-7.53,-11.21,-15.14,2.55,6.67,-0.51,
17:58:32:470,-8.47,-10.20,-13.67,2.55,6.67,-0.51,
17:58:32:470,-8.90,-9.19,-12.57,2.55,6.67,-0.51,
17:58:32:472,-8.90,-9.19,-12.57,2.44,6.99,-0.40,
17:58:32:472,-8.90,-9.19,-12.57,2.26,7.23,-0.21,
17:58:32:473,-9.03,-8.58,-12.03,2.26,7.23,-0.21,
17:58:32:477,-9.03,-8.58,-12.03,1.98,7.37,0.03,
17:58:32:478,-8.97,-8.42,-11.47,1.98,7.37,0.03,
17:58:32:481,-8.97,-8.42,-11.47,1.61,7.37,0.29,
17:58:32:482,-8.93,-8.70,-10.30,1.61,7.37,0.29,
17:58:32:487,-8.93,-8.70,-10.30,1.18,7.22,0.57,
17:58:32:487,-8.66,-9.35,-8.82,1.18,7.22,0.57,
17:58:32:491,-8.42,-10.19,-7.27,1.18,7.22,0.57,
17:58:32:492,-8.42,-10.19,-7.27,0.71,6.93,0.83,
17:58:32:496,-8.42,-10.19,-7.27,0.25,6.56,1.07,
17:58:32:497,-7.68,-11.21,-6.31,0.25,6.56,1.07,
17:58:32:502,-6.54,-12.05,-5.54,0.25,6.56,1.07,
17:58:32:503,-6.54,-12.05,-5.54,-0.19,6.19,1.24,
17:58:32:506,-6.54,-12.05,-5.54,-0.59,5.83,1.33,
17:58:32:506,-5.19,-12.60,-5.39,-0.59,5.83,1.33,
17:58:32:512,-5.19,-12.60,-5.39,-0.94,5.53,1.33,
17:58:32:513,-4.07,-12.69,-5.15,-0.94,5.53,1.33,
17:58:32:516,-4.07,-12.69,-5.15,-1.29,5.25,1.23,
17:58:32:516,-3.39,-12.30,-4.90,-1.29,5.25,1.23,
17:58:32:522,-2.78,-11.01,-6.70,-1.29,5.25,1.23,
17:58:32:522,-2.78,-11.01,-6.70,-1.69,5.04,1.05,
17:58:32:525,-2.92,-9.29,-6.32,-1.69,5.04,1.05,
17:58:32:526,-2.92,-9.29,-6.32,-2.11,5.14,0.83,
17:58:32:531,-3.63,-7.10,-5.09,-2.11,5.14,0.83,
17:58:32:532,-3.63,-7.10,-5.09,-2.47,5.43,0.62,
17:58:32:535,-3.63,-7.10,-5.09,-2.81,5.84,0.46,
17:58:32:536,-5.17,-4.11,-2.97,-2.81,5.84,0.46,
17:58:32:541,-7.34,-1.38,0.87,-2.81,5.84,0.46,
17:58:32:542,-7.34,-1.38,0.87,-3.09,6.38,0.39,
17:58:32:545,-7.34,-1.38,0.87,-3.30,6.99,0.46,
17:58:32:545,-9.59,1.16,5.70,-3.30,6.99,0.46,
17:58:32:552,-11.95,3.45,11.05,-3.30,6.99,0.46,
17:58:32:554,-11.95,3.45,11.05,-3.39,7.53,0.65,
17:58:32:555,-11.95,3.45,11.05,-3.36,7.99,0.95,
17:58:32:557,-14.30,5.36,16.58,-3.36,7.99,0.95,
17:58:32:561,-14.30,5.36,16.58,-3.20,8.35,1.31,
17:58:32:562,-16.11,6.42,21.96,-3.20,8.35,1.31,
17:58:32:566,-16.11,6.42,21.96,-2.93,8.57,1.66,
17:58:32:567,-17.12,6.64,27.59,-2.93,8.57,1.66,
17:58:32:569,-17.12,6.64,27.59,-2.54,8.59,1.96,
17:58:32:571,-17.15,6.05,32.15,-2.54,8.59,1.96,
17:58:32:574,-16.16,5.31,32.30,-2.54,8.59,1.96,
17:58:32:576,-16.16,5.31,32.30,-2.01,8.45,2.15,
17:58:32:579,-14.09,5.30,32.46,-2.01,8.45,2.15,
17:58:32:580,-14.09,5.30,32.46,-1.42,8.31,2.21,
17:58:32:584,-14.09,5.30,32.46,-0.81,8.14,2.13,
17:58:32:585,-11.68,6.34,32.64,-0.81,8.14,2.13,
17:58:32:588,-11.68,6.34,32.64,-0.15,7.91,1.96,
17:58:32:603,-9.79,7.71,32.83,-0.15,7.91,1.96,
17:58:32:604,-9.79,7.71,32.83,0.60,7.69,1.72,
17:58:32:606,-7.85,8.97,33.04,0.60,7.69,1.72,
17:58:32:609,-7.85,8.97,33.04,1.42,7.49,1.44,
17:58:32:617,-6.24,10.11,32.74,1.42,7.49,1.44,
17:58:32:618,-5.28,10.98,29.86,1.42,7.49,1.44,
17:58:32:619,-5.28,10.98,29.86,2.26,7.28,1.15,
17:58:32:621,-5.28,10.98,29.86,3.06,7.10,0.87,
17:58:32:623,-4.70,11.45,26.39,3.06,7.10,0.87,
17:58:32:624,-4.70,11.45,26.39,3.80,7.00,0.65,
17:58:32:625,-5.68,10.86,22.20,3.80,7.00,0.65,
17:58:32:627,-6.05,10.28,18.32,3.80,7.00,0.65,
17:58:32:627,-6.05,10.28,18.32,4.41,6.97,0.57,
17:58:32:627,-6.05,10.28,18.32,4.90,6.96,0.61,
17:58:32:628,-5.08,9.95,14.82,4.90,6.96,0.61,
17:58:32:628,-3.47,9.57,11.44,4.90,6.96,0.61,
17:58:32:629,-3.47,9.57,11.44,5.28,6.92,0.69,
17:58:32:632,-1.73,8.78,8.26,5.28,6.92,0.69,
17:58:32:633,-1.73,8.78,8.26,5.56,6.86,0.76,
17:58:32:638,-1.73,8.78,8.26,5.71,6.79,0.81,
17:58:32:639,-0.42,7.83,5.09,5.71,6.79,0.81,
17:58:32:642,-0.42,7.83,5.09,5.72,6.70,0.83,
17:58:32:643,0.63,6.83,1.82,5.72,6.70,0.83,
17:58:32:648,0.63,6.83,1.82,5.56,6.59,0.86,
17:58:32:649,1.45,6.01,-1.45,5.56,6.59,0.86,
17:58:32:652,1.45,6.01,-1.45,5.26,6.47,0.89,
17:58:32:654,2.00,5.52,-3.89,5.26,6.47,0.89,
17:58:32:661,2.00,5.52,-3.89,4.83,6.32,0.93,
17:58:32:663,2.38,5.20,-5.04,4.83,6.32,0.93,
17:58:32:719,3.12,4.73,-6.10,4.83,6.32,0.93,
17:58:32:720,3.12,4.73,-6.10,4.35,6.14,0.99,
17:58:32:721,3.12,4.73,-6.10,3.80,5.93,1.06,
17:58:32:722,3.97,4.32,-6.35,3.80,5.93,1.06,
17:58:32:723,4.78,3.63,-6.74,3.80,5.93,1.06,
17:58:32:726,4.78,3.63,-6.74,3.19,5.68,1.12,
17:58:32:727,4.78,3.63,-6.74,2.51,5.37,1.15,
17:58:32:727,5.60,2.74,-6.82,2.51,5.37,1.15,
17:58:32:728,5.60,2.74,-6.82,1.78,5.02,1.15,
17:58:32:730,6.35,1.86,-6.69,1.78,5.02,1.15,
17:58:32:731,7.19,1.06,-6.27,1.78,5.02,1.15,
17:58:32:731,7.19,1.06,-6.27,1.01,4.61,1.12,
17:58:32:732,8.20,-0.03,-6.26,1.01,4.61,1.12,
17:58:32:733,8.20,-0.03,-6.26,0.22,4.17,1.07,
17:58:32:734,8.20,-0.03,-6.26,-0.56,3.75,0.97,
17:58:32:737,9.48,-1.12,-5.27,-0.56,3.75,0.97,
17:58:32:738,10.70,-1.76,-4.00,-0.56,3.75,0.97,
17:58:32:738,10.70,-1.76,-4.00,-1.31,3.29,0.82,
17:58:32:739,12.05,-1.96,-1.83,-1.31,3.29,0.82,
17:58:32:740,12.05,-1.96,-1.83,-2.00,2.79,0.64,
17:58:32:740,12.05,-1.96,-1.83,-2.59,2.21,0.44,
17:58:32:742,13.27,-1.96,0.56,-2.59,2.21,0.44,
17:58:32:742,13.27,-1.96,0.56,-3.05,1.64,0.23,
17:58:32:743,13.83,-1.99,1.29,-3.05,1.64,0.23,
17:58:32:744,13.83,-1.99,1.29,-3.41,1.13,0.01,
17:58:32:745,14.59,-2.06,2.84,-3.41,1.13,0.01,
17:58:32:746,15.50,-2.11,3.33,-3.41,1.13,0.01,
17:58:32:747,15.50,-2.11,3.33,-3.65,0.61,-0.22,
17:58:32:747,15.36,-2.35,3.93,-3.65,0.61,-0.22,
17:58:32:748,15.36,-2.35,3.93,-3.81,0.15,-0.49,
17:58:32:748,14.99,-2.31,4.56,-3.81,0.15,-0.49,
17:58:32:749,14.99,-2.31,4.56,-3.89,-0.25,-0.74,
17:58:32:763,14.99,-2.31,4.56,-3.90,-0.58,-0.95,
17:58:32:764,14.77,-1.88,4.78,-3.90,-0.58,-0.95,
17:58:32:764,13.89,-0.89,5.01,-3.90,-0.58,-0.95,
17:58:32:765,13.89,-0.89,5.01,-3.86,-0.85,-1.11,
17:58:32:768,12.24,0.61,4.53,-3.86,-0.85,-1.11,
17:58:32:769,12.24,0.61,4.53,-3.77,-1.06,-1.20,
17:58:32:769,12.24,0.61,4.53,-3.64,-1.15,-1.20,
17:58:32:770,11.05,2.03,4.17,-3.64,-1.15,-1.20,
17:58:32:770,10.53,3.12,4.17,-3.64,-1.15,-1.20,
17:58:32:771,10.53,3.12,4.17,-3.48,-1.19,-1.10,
17:58:32:771,10.53,3.12,4.17,-3.30,-1.26,-0.95,
17:58:32:772,10.02,4.15,4.38,-3.30,-1.26,-0.95,
17:58:32:772,10.02,4.15,4.38,-3.10,-1.36,-0.72,
17:58:32:773,9.32,5.07,4.17,-3.10,-1.36,-0.72,
17:58:32:773,8.71,5.63,3.70,-3.10,-1.36,-0.72,
17:58:32:773,8.71,5.63,3.70,-2.92,-1.49,-0.42,
17:58:32:781,8.32,5.77,3.08,-2.92,-1.49,-0.42,
17:58:32:782,8.32,5.77,3.08,-2.76,-1.61,-0.07,
17:58:32:790,7.51,5.52,2.52,-2.76,-1.61,-0.07,
17:58:32:792,7.51,5.52,2.52,-2.63,-1.70,0.30,
17:58:32:793,8.75,4.61,1.78,-2.63,-1.70,0.30,
17:58:32:801,9.28,4.03,1.25,-2.63,-1.70,0.30,
17:58:32:802,9.28,4.03,1.25,-2.53,-1.70,0.65,
17:58:32:803,9.28,4.03,1.25,-2.49,-1.71,0.89,
17:58:32:804,9.55,3.66,1.31,-2.49,-1.71,0.89,
17:58:32:805,9.55,3.66,1.31,-2.52,-1.75,1.04,
17:58:32:807,10.67,2.90,2.22,-2.52,-1.75,1.04,
17:58:32:810,10.67,2.90,2.22,-2.57,-1.80,1.11,
17:58:32:812,11.23,2.22,3.43,-2.57,-1.80,1.11,
17:58:32:813,11.23,2.22,3.43,-2.61,-1.88,1.09,
17:58:32:815,11.37,1.68,4.61,-2.61,-1.88,1.09,
17:58:32:815,11.37,1.68,4.61,-2.60,-1.98,1.00,
17:58:32:824,11.37,1.68,4.61,-2.54,-2.08,0.86,
17:58:32:825,11.20,1.40,5.77,-2.54,-2.08,0.86,
17:58:32:825,11.20,1.40,5.77,-2.45,-2.21,0.71,
17:58:32:826,11.14,1.51,7.26,-2.45,-2.21,0.71,
17:58:32:827,10.64,1.74,8.79,-2.45,-2.21,0.71,
17:58:32:827,10.64,1.74,8.79,-2.32,-2.38,0.55,
17:58:32:831,9.81,2.08,10.18,-2.32,-2.38,0.55,
17:58:32:832,9.81,2.08,10.18,-2.12,-2.59,0.40,
17:58:32:836,8.09,2.41,11.14,-2.12,-2.59,0.40,
17:58:32:837,8.09,2.41,11.14,-1.86,-2.81,0.27,
17:58:32:841,8.09,2.41,11.14,-1.53,-2.99,0.16,
17:58:32:842,6.24,2.79,12.23,-1.53,-2.99,0.16,
17:58:32:846,6.24,2.79,12.23,-1.14,-3.18,0.09,
17:58:32:847,4.24,3.27,12.99,-1.14,-3.18,0.09,
17:58:32:851,2.03,3.96,13.28,-1.14,-3.18,0.09,
17:58:32:852,2.03,3.96,13.28,-0.70,-3.38,0.06,
17:58:32:857,-0.10,4.76,13.39,-0.70,-3.38,0.06,
17:58:32:857,-0.10,4.76,13.39,-0.24,-3.61,0.10,
17:58:32:861,-2.50,5.57,13.46,-0.24,-3.61,0.10,
17:58:32:862,-2.50,5.57,13.46,0.22,-3.86,0.21,
17:58:32:866,-2.50,5.57,13.46,0.69,-4.10,0.40,
17:58:32:867,-4.78,6.31,13.29,0.69,-4.10,0.40,
17:58:32:869,-4.78,6.31,13.29,1.12,-4.31,0.68,
17:58:32:870,-6.35,6.81,13.02,1.12,-4.31,0.68,
17:58:32:874,-6.35,6.81,13.02,1.51,-4.52,1.00,
17:58:32:875,-7.09,7.00,12.25,1.51,-4.52,1.00,
17:58:32:880,-7.01,6.88,11.04,1.51,-4.52,1.00,
17:58:32:883,-7.01,6.88,11.04,1.80,-4.68,1.31,
17:58:32:884,-7.01,6.88,11.04,1.97,-4.78,1.55,
17:58:32:885,-8.05,6.05,9.52,1.97,-4.78,1.55,
17:58:32:890,-8.05,6.05,9.52,2.02,-4.73,1.74,
17:58:32:891,-7.81,4.68,8.41,2.02,-4.73,1.74,
17:58:32:894,-5.74,3.52,7.69,2.02,-4.73,1.74,
17:58:32:895,-5.74,3.52,7.69,1.98,-4.67,1.83,
17:58:32:899,-5.74,3.52,7.69,1.85,-4.69,1.75,
17:58:32:899,-4.33,3.01,6.74,1.85,-4.69,1.75,
17:58:32:931,-4.00,2.97,5.29,1.85,-4.69,1.75,
17:58:32:932,-4.00,2.97,5.29,1.63,-4.74,1.49,
17:58:32:934,-4.00,2.97,5.29,1.31,-4.69,1.11,
17:58:32:934,-3.95,3.25,4.14,1.31,-4.69,1.11,
17:58:32:935,-3.95,3.25,4.14,0.89,-4.57,0.63,
17:58:32:936,-3.94,3.27,4.00,0.89,-4.57,0.63,
17:58:32:936,-3.94,3.27,4.00,0.42,-4.45,0.08,
17:58:32:937,-4.65,2.95,4.60,0.42,-4.45,0.08,
17:58:32:938,-4.65,2.95,4.60,-0.06,-4.33,-0.49,
17:58:32:939,-7.12,2.78,5.17,-0.06,-4.33,-0.49,
17:58:32:939,-7.12,2.78,5.17,-0.49,-4.18,-0.96,
17:58:32:939,-10.86,2.81,6.85,-0.49,-4.18,-0.96,
17:58:32:941,-10.86,2.81,6.85,-0.81,-3.99,-1.27,
17:58:32:941,-13.06,2.85,9.39,-0.81,-3.99,-1.27,
17:58:32:942,-13.06,2.85,9.39,-0.98,-3.87,-1.45,
17:58:32:943,-14.16,2.87,11.64,-0.98,-3.87,-1.45,
17:58:32:944,-14.16,2.87,11.64,-1.02,-3.84,-1.55,
17:58:32:945,-15.08,2.66,12.95,-1.02,-3.84,-1.55,
17:58:32:950,-15.62,2.01,13.54,-1.02,-3.84,-1.55,
17:58:32:951,-15.62,2.01,13.54,-0.97,-3.86,-1.60,
17:58:32:954,-15.50,0.67,12.98,-0.97,-3.86,-1.60,
17:58:32:955,-15.50,0.67,12.98,-0.87,-3.91,-1.61,
17:58:32:962,-15.50,0.67,12.98,-0.75,-3.94,-1.62,
17:58:32:963,-14.55,-0.22,12.34,-0.75,-3.94,-1.62,
17:58:32:965,-14.55,-0.22,12.34,-0.61,-4.02,-1.63,
17:58:32:967,-13.39,-0.76,11.28,-0.61,-4.02,-1.63,
17:58:32:968,-13.39,-0.76,11.28,-0.45,-4.13,-1.63,
17:58:32:969,-12.10,-1.39,9.69,-0.45,-4.13,-1.63,
17:58:32:972,-10.55,-2.22,7.57,-0.45,-4.13,-1.63,
17:58:32:973,-10.55,-2.22,7.57,-0.29,-4.20,-1.63,
17:58:32:978,-10.55,-2.22,7.57,-0.13,-4.22,-1.61,
17:58:32:981,-9.06,-3.04,5.25,-0.13,-4.22,-1.61,
17:58:32:983,-9.06,-3.04,5.25,0.01,-4.14,-1.57,
17:58:32:983,-8.59,-3.61,2.89,0.01,-4.14,-1.57,
17:58:32:987,-8.59,-3.61,2.89,0.15,-3.90,-1.49,
17:58:32:988,-6.14,-4.12,0.62,0.15,-3.90,-1.49,
17:58:32:991,-6.14,-4.12,0.62,0.29,-3.64,-1.41,
17:58:32:992,-3.59,-4.62,-1.35,0.29,-3.64,-1.41,
17:58:32:997,-3.59,-4.62,-1.35,0.40,-3.37,-1.36,
17:58:32:998,-1.36,-5.18,-3.45,0.40,-3.37,-1.36,
17:58:33:001,-1.36,-5.18,-3.45,0.49,-3.03,-1.35,
17:58:33:001,0.28,-5.82,-5.55,0.49,-3.03,-1.35,
17:58:33:006,0.28,-5.82,-5.55,0.56,-2.54,-1.38,
17:58:33:007,1.66,-6.30,-7.03,0.56,-2.54,-1.38,
17:58:33:012,1.66,-6.30,-7.03,0.61,-1.99,-1.45,
17:58:33:013,3.10,-6.75,-7.99,0.61,-1.99,-1.45,
17:58:33:018,4.13,-7.10,-8.29,0.61,-1.99,-1.45,
17:58:33:018,4.13,-7.10,-8.29,0.66,-1.43,-1.57,
17:58:33:020,4.85,-7.46,-8.32,0.66,-1.43,-1.57,
17:58:33:021,4.85,-7.46,-8.32,0.71,-0.92,-1.72,
17:58:33:025,5.23,-7.98,-8.30,0.71,-0.92,-1.72,
17:58:33:026,5.23,-7.98,-8.30,0.77,-0.48,-1.89,
17:58:33:033,4.81,-8.39,-8.19,0.77,-0.48,-1.89,
17:58:33:037,4.81,-8.39,-8.19,0.82,-0.11,-2.09,
17:58:33:042,4.81,-8.39,-8.19,0.85,0.20,-2.29,
17:58:33:045,3.82,-8.65,-7.59,0.85,0.20,-2.29,
17:58:33:046,2.96,-8.87,-6.74,0.85,0.20,-2.29,
17:58:33:047,2.96,-8.87,-6.74,0.90,0.44,-2.44,
17:58:33:047,2.21,-9.01,-5.99,0.90,0.44,-2.44,
17:58:33:051,2.21,-9.01,-5.99,0.96,0.58,-2.56,
17:58:33:052,1.50,-9.04,-5.41,0.96,0.58,-2.56,
17:58:33:052,1.50,-9.04,-5.41,1.06,0.64,-2.63,
17:58:33:054,1.50,-9.04,-5.41,1.17,0.67,-2.68,
17:58:33:055,1.16,-9.30,-5.51,1.17,0.67,-2.68,
17:58:33:059,1.16,-9.30,-5.51,1.29,0.70,-2.74,
17:58:33:061,1.24,-9.47,-5.17,1.29,0.70,-2.74,
17:58:33:065,0.91,-9.26,-4.85,1.29,0.70,-2.74,
17:58:33:065,0.91,-9.26,-4.85,1.39,0.66,-2.80,
17:58:33:069,0.91,-9.26,-4.85,1.54,0.55,-2.80,
17:58:33:072,0.38,-9.11,-5.07,1.54,0.55,-2.80,
17:58:33:074,0.12,-9.07,-5.63,1.54,0.55,-2.80,
17:58:33:075,0.12,-9.07,-5.63,1.70,0.49,-2.75,
17:58:33:079,0.12,-9.07,-5.63,1.87,0.49,-2.66,
17:58:33:081,-0.15,-8.96,-6.23,1.87,0.49,-2.66,
17:58:33:083,-0.15,-8.96,-6.23,2.06,0.53,-2.55,
17:58:33:087,-0.49,-8.90,-6.90,2.06,0.53,-2.55,
17:58:33:088,-0.49,-8.90,-6.90,2.25,0.60,-2.41,
17:58:33:089,-0.72,-9.05,-7.64,2.25,0.60,-2.41,
17:58:33:093,-0.72,-9.05,-7.64,2.43,0.68,-2.26,
17:58:33:094,-0.85,-9.34,-8.49,2.43,0.68,-2.26,
17:58:33:099,-0.81,-9.69,-9.86,2.43,0.68,-2.26,
17:58:33:100,-0.81,-9.69,-9.86,2.59,0.80,-2.09,
17:58:33:102,-0.81,-9.69,-9.86,2.70,0.97,-1.94,
17:58:33:103,-0.46,-10.08,-11.26,2.70,0.97,-1.94,
17:58:33:107,-0.32,-10.51,-12.67,2.70,0.97,-1.94,
17:58:33:108,-0.32,-10.51,-12.67,2.73,1.15,-1.83,
17:58:33:112,-0.32,-10.51,-12.67,2.69,1.32,-1.73,
17:58:33:115,-0.60,-10.93,-14.06,2.69,1.32,-1.73,
17:58:33:117,-0.60,-10.93,-14.06,2.57,1.51,-1.64,
17:58:33:118,-0.90,-11.34,-15.30,2.57,1.51,-1.64,
17:58:33:123,-0.96,-11.81,-16.50,2.57,1.51,-1.64,
17:58:33:124,-0.96,-11.81,-16.50,2.39,1.73,-1.54,
17:58:33:127,-1.38,-12.18,-17.30,2.39,1.73,-1.54,
17:58:33:127,-1.38,-12.18,-17.30,2.14,2.01,-1.45,
17:58:33:132,-1.38,-12.18,-17.30,1.85,2.37,-1.34,
17:58:33:132,-1.88,-12.67,-17.38,1.85,2.37,-1.34,
17:58:33:137,-1.88,-12.67,-17.38,1.54,2.77,-1.24,
17:58:33:137,-2.18,-12.97,-16.51,1.54,2.77,-1.24,
17:58:33:142,-2.18,-12.97,-16.51,1.22,3.09,-1.15,
17:58:33:142,-2.52,-12.77,-15.16,1.22,3.09,-1.15,
17:58:33:184,-2.47,-13.07,-13.63,1.22,3.09,-1.15,
17:58:33:185,-2.47,-13.07,-13.63,0.90,3.28,-1.07,
17:58:33:186,-2.55,-13.35,-12.54,0.90,3.28,-1.07,
17:58:33:187,-2.55,-13.35,-12.54,0.54,3.37,-1.02,
17:58:33:188,-2.55,-13.35,-12.54,0.11,3.37,-1.02,
17:58:33:188,-2.55,-13.71,-11.40,0.11,3.37,-1.02,
17:58:33:189,-2.55,-13.71,-11.40,-0.41,3.21,-1.06,
17:58:33:190,-2.50,-13.74,-10.39,-0.41,3.21,-1.06,
17:58:33:191,-2.50,-13.74,-10.39,-1.03,2.86,-1.13,
17:58:33:191,-3.13,-13.06,-9.71,-1.03,2.86,-1.13,
17:58:33:192,-3.13,-13.06,-9.71,-1.75,2.35,-1.18,
17:58:33:192,-3.76,-12.07,-9.20,-1.75,2.35,-1.18,
17:58:33:193,-3.76,-12.07,-9.20,-2.56,1.69,-1.22,
17:58:33:193,-4.40,-11.18,-8.67,-2.56,1.69,-1.22,
17:58:33:194,-4.40,-11.18,-8.67,-3.41,0.94,-1.25,
17:58:33:195,-5.25,-10.29,-8.04,-3.41,0.94,-1.25,
17:58:33:198,-6.48,-9.04,-7.57,-3.41,0.94,-1.25,
17:58:33:200,-6.48,-9.04,-7.57,-4.25,0.15,-1.24,
17:58:33:201,-9.05,-7.07,-6.33,-4.25,0.15,-1.24,
17:58:33:202,-9.05,-7.07,-6.33,-5.01,-0.57,-1.18,
17:58:33:202,-9.05,-7.07,-6.33,-5.61,-1.03,-0.99,
17:58:33:203,-11.87,-4.83,-4.62,-5.61,-1.03,-0.99,
17:58:33:204,-14.04,-3.30,-3.52,-5.61,-1.03,-0.99,
17:58:33:205,-14.04,-3.30,-3.52,-6.02,-1.20,-0.66,
17:58:33:207,-14.04,-3.30,-3.52,-6.27,-1.13,-0.24,
17:58:33:207,-15.07,-1.00,-1.54,-6.27,-1.13,-0.24,
17:58:33:211,-15.07,-1.00,-1.54,-6.33,-0.91,0.20,
17:58:33:212,-16.17,1.02,0.26,-6.33,-0.91,0.20,
17:58:33:216,-16.17,1.02,0.26,-6.20,-0.39,0.66,
17:58:33:217,-17.36,2.45,2.83,-6.20,-0.39,0.66,
17:58:33:219,-18.57,3.90,6.81,-6.20,-0.39,0.66,
17:58:33:221,-18.57,3.90,6.81,-5.87,0.48,1.13,
17:58:33:224,-19.27,5.08,11.10,-5.87,0.48,1.13,
17:58:33:225,-19.27,5.08,11.10,-5.32,1.58,1.60,
17:58:33:229,-19.27,5.08,11.10,-4.57,2.76,2.05,
17:58:33:231,-19.05,5.82,15.38,-4.57,2.76,2.05,
17:58:33:234,-17.93,5.79,18.63,-4.57,2.76,2.05,
17:58:33:235,-17.93,5.79,18.63,-3.74,3.90,2.43,
17:58:33:239,-17.93,5.79,18.63,-2.94,4.94,2.67,
17:58:33:240,-16.52,5.37,20.74,-2.94,4.94,2.67,
17:58:33:244,-16.52,5.37,20.74,-2.29,5.79,2.73,
17:58:33:245,-15.63,5.24,22.86,-2.29,5.79,2.73,
17:58:33:249,-15.74,5.37,25.37,-2.29,5.79,2.73,
17:58:33:250,-15.74,5.37,25.37,-1.80,6.34,2.65,
17:58:33:253,-15.74,5.37,25.37,-1.44,6.50,2.49,
17:58:33:255,-15.89,6.23,28.01,-1.44,6.50,2.49,
17:58:33:258,-15.89,6.23,28.01,-1.17,6.20,2.29,
17:58:33:259,-16.95,7.44,29.45,-1.17,6.20,2.29,
17:58:33:263,-17.92,8.79,29.38,-1.17,6.20,2.29,
17:58:33:265,-17.92,8.79,29.38,-0.99,5.52,2.13,
17:58:33:268,-18.66,9.94,28.09,-0.99,5.52,2.13,
17:58:33:269,-18.66,9.94,28.09,-0.92,4.56,2.05,
17:58:33:273,-18.66,9.94,28.09,-0.95,3.40,2.07,
17:58:33:274,-18.97,10.74,25.60,-0.95,3.40,2.07,
17:58:33:278,-18.97,10.74,25.60,-1.08,2.12,2.21,
17:58:33:279,-18.34,11.13,22.52,-1.08,2.12,2.21,
17:58:33:282,-16.52,11.08,18.81,-1.08,2.12,2.21,
17:58:33:283,-16.52,11.08,18.81,-1.28,0.84,2.44,
17:58:33:287,-13.60,10.52,14.92,-1.28,0.84,2.44,
17:58:33:288,-13.60,10.52,14.92,-1.51,-0.34,2.72,
17:58:33:292,-13.60,10.52,14.92,-1.75,-1.29,2.97,
17:58:33:292,-10.80,9.14,11.74,-1.75,-1.29,2.97,
17:58:33:298,-10.80,9.14,11.74,-1.91,-1.95,3.18,
17:58:33:299,-7.41,7.12,9.26,-1.91,-1.95,3.18,
17:58:33:302,-7.41,7.12,9.26,-1.99,-2.37,3.31,
17:58:33:303,-3.65,5.02,6.91,-1.99,-2.37,3.31,
17:58:33:307,-3.65,5.02,6.91,-1.97,-2.59,3.31,
17:58:33:308,-0.10,3.21,4.54,-1.97,-2.59,3.31,
17:58:33:311,2.92,1.84,1.91,-1.97,-2.59,3.31,
17:58:33:313,2.92,1.84,1.91,-1.88,-2.60,3.22,
17:58:33:316,5.29,0.93,-0.76,-1.88,-2.60,3.22,
17:58:33:317,5.29,0.93,-0.76,-1.74,-2.40,3.06,
17:58:33:321,6.96,0.38,-3.18,-1.74,-2.40,3.06,
17:58:33:322,6.96,0.38,-3.18,-1.58,-1.99,2.86,
17:58:33:326,6.96,0.38,-3.18,-1.42,-1.43,2.65,
17:58:33:327,7.91,0.05,-5.11,-1.42,-1.43,2.65,
17:58:33:331,8.35,-0.20,-6.35,-1.42,-1.43,2.65,
17:58:33:332,8.35,-0.20,-6.35,-1.28,-0.77,2.46,
17:58:33:336,8.35,-0.20,-6.35,-1.15,-0.08,2.30,
17:58:33:337,8.51,-0.48,-6.90,-1.15,-0.08,2.30,
17:58:33:342,8.51,-0.48,-6.90,-1.04,0.57,2.17,
17:58:33:343,8.56,-0.82,-6.78,-1.04,0.57,2.17,
17:58:33:347,8.49,-1.31,-6.15,-1.04,0.57,2.17,
17:58:33:348,8.49,-1.31,-6.15,-0.95,1.13,2.06,
17:58:33:351,8.55,-1.89,-5.18,-0.95,1.13,2.06,
17:58:33:352,8.55,-1.89,-5.18,-0.87,1.58,1.97,
17:58:33:356,8.91,-2.49,-4.64,-0.87,1.58,1.97,
17:58:33:357,8.91,-2.49,-4.64,-0.79,1.89,1.88,
17:58:33:362,8.91,-2.49,-4.64,-0.71,2.11,1.78,
17:58:33:363,9.20,-2.86,-3.65,-0.71,2.11,1.78,
17:58:33:368,9.20,-2.86,-3.65,-0.63,2.23,1.68,
17:58:33:369,9.67,-3.26,-3.05,-0.63,2.23,1.68,
17:58:33:370,10.14,-3.65,-2.80,-0.63,2.23,1.68,
17:58:33:371,10.14,-3.65,-2.80,-0.57,2.26,1.55,
17:58:33:375,10.14,-3.65,-2.80,-0.55,2.23,1.39,
17:58:33:376,10.37,-3.90,-2.67,-0.55,2.23,1.39,
17:58:33:380,10.45,-3.88,-2.57,-0.55,2.23,1.39,
17:58:33:381,10.45,-3.88,-2.57,-0.57,2.12,1.22,
17:58:33:384,10.45,-3.88,-2.57,-0.64,1.94,1.06,
17:58:33:385,10.53,-3.83,-2.55,-0.64,1.94,1.06,
17:58:33:422,10.57,-3.76,-2.55,-0.64,1.94,1.06,
17:58:33:423,10.57,-3.76,-2.55,-0.76,1.69,0.90,
17:58:33:424,10.58,-3.66,-2.58,-0.76,1.69,0.90,
17:58:33:424,10.58,-3.66,-2.58,-0.94,1.39,0.75,
17:58:33:424,10.55,-3.35,-2.33,-0.94,1.39,0.75,
17:58:33:425,10.55,-3.35,-2.33,-1.15,1.08,0.60,
17:58:33:425,10.55,-3.35,-2.33,-1.38,0.73,0.46,
17:58:33:426,10.57,-2.99,-2.03,-1.38,0.73,0.46,
17:58:33:426,10.57,-2.99,-2.03,-1.62,0.37,0.33,
17:58:33:427,10.64,-2.58,-1.48,-1.62,0.37,0.33,
17:58:33:428,10.71,-2.18,-0.77,-1.62,0.37,0.33,
17:58:33:428,10.71,-2.18,-0.77,-1.85,-0.02,0.20,
17:58:33:430,10.71,-2.18,-0.77,-2.05,-0.42,0.09,
17:58:33:432,10.62,-1.70,0.29,-2.05,-0.42,0.09,
17:58:33:433,10.62,-1.70,0.29,-2.19,-0.85,0.01,
17:58:33:434,10.51,-1.19,1.37,-2.19,-0.85,0.01,
17:58:33:434,10.51,-1.19,1.37,-2.27,-1.31,-0.04,
17:58:33:435,10.49,-0.65,2.35,-2.27,-1.31,-0.04,
17:58:33:436,10.49,-0.65,2.35,-2.28,-1.79,-0.06,
17:58:33:437,10.61,-0.14,3.00,-2.28,-1.79,-0.06,
17:58:33:438,10.61,-0.14,3.00,-2.23,-2.25,-0.06,
17:58:33:439,10.94,0.29,3.16,-2.23,-2.25,-0.06,
17:58:33:443,10.94,0.29,3.16,-2.14,-2.67,-0.07,
17:58:33:443,11.42,0.65,2.93,-2.14,-2.67,-0.07,
17:58:33:448,11.42,0.65,2.93,-2.05,-3.05,-0.09,
17:58:33:449,11.89,0.87,2.50,-2.05,-3.05,-0.09,
17:58:33:454,11.89,0.87,2.50,-1.95,-3.38,-0.14,
17:58:33:455,12.19,1.01,1.90,-1.95,-3.38,-0.14,
17:58:33:457,12.23,0.95,1.01,-1.95,-3.38,-0.14,
17:58:33:459,12.23,0.95,1.01,-1.86,-3.64,-0.19,
17:58:33:463,12.27,1.23,0.23,-1.86,-3.64,-0.19,
17:58:33:464,12.27,1.23,0.23,-1.78,-3.82,-0.26,
17:58:33:467,12.08,1.53,-0.38,-1.78,-3.82,-0.26,
17:58:33:468,12.08,1.53,-0.38,-1.71,-3.94,-0.32,
17:58:33:471,12.08,1.53,-0.38,-1.63,-3.99,-0.36,
17:58:33:472,11.82,1.69,-0.79,-1.63,-3.99,-0.36,
17:58:33:476,11.82,1.69,-0.79,-1.54,-3.97,-0.41,
17:58:33:477,11.54,1.80,-0.97,-1.54,-3.97,-0.41,
17:58:33:482,11.28,1.84,-0.87,-1.54,-3.97,-0.41,
17:58:33:483,11.28,1.84,-0.87,-1.43,-3.86,-0.44,
17:58:33:486,11.10,1.77,-0.43,-1.43,-3.86,-0.44,
17:58:33:487,11.10,1.77,-0.43,-1.30,-3.71,-0.47,
17:58:33:491,10.75,1.57,0.21,-1.30,-3.71,-0.47,
17:58:33:492,10.75,1.57,0.21,-1.12,-3.53,-0.51,
17:58:33:498,10.75,1.57,0.21,-0.90,-3.33,-0.56,
17:58:33:499,10.22,1.38,1.17,-0.90,-3.33,-0.56,
17:58:33:501,10.22,1.38,1.17,-0.65,-3.14,-0.61,
17:58:33:503,9.57,1.16,2.14,-0.65,-3.14,-0.61,
17:58:33:506,9.57,1.16,2.14,-0.36,-2.98,-0.67,
17:58:33:507,8.82,0.93,3.10,-0.36,-2.98,-0.67,
17:58:33:511,8.82,0.93,3.10,-0.03,-2.85,-0.74,
17:58:33:513,7.79,0.65,4.15,-0.03,-2.85,-0.74,
17:58:33:516,6.53,0.44,5.23,-0.03,-2.85,-0.74,
17:58:33:517,6.53,0.44,5.23,0.32,-2.73,-0.81,
17:58:33:521,6.53,0.44,5.23,0.71,-2.63,-0.87,
17:58:33:522,5.31,0.26,6.13,0.71,-2.63,-0.87,
17:58:33:526,5.31,0.26,6.13,1.13,-2.53,-0.92,
17:58:33:528,4.25,0.08,6.92,1.13,-2.53,-0.92,
17:58:33:532,4.25,0.08,6.92,1.55,-2.45,-0.96,
17:58:33:533,3.05,0.04,7.53,1.55,-2.45,-0.96,
17:58:33:536,3.05,0.04,7.53,1.97,-2.37,-0.99,
17:58:33:537,1.69,0.12,7.81,1.97,-2.37,-0.99,
17:58:33:540,1.69,0.12,7.81,2.36,-2.28,-0.99,
17:58:33:541,0.39,0.39,7.82,2.36,-2.28,-0.99,
17:58:33:545,0.39,0.39,7.82,2.69,-2.21,-0.97,
17:58:33:547,-0.61,0.65,7.80,2.69,-2.21,-0.97,
17:58:33:551,-0.61,0.65,7.80,2.94,-2.18,-0.93,
17:58:33:552,-1.15,0.81,7.76,2.94,-2.18,-0.93,
17:58:33:555,-1.15,0.81,7.76,3.12,-2.19,-0.89,
17:58:33:556,-1.57,0.73,7.74,3.12,-2.19,-0.89,
17:58:33:560,-1.57,0.73,7.74,3.23,-2.23,-0.84,
17:58:33:561,-1.95,0.49,7.73,3.23,-2.23,-0.84,
17:58:33:565,-1.95,0.49,7.73,3.29,-2.26,-0.81,
17:58:33:566,-2.40,0.32,7.84,3.29,-2.26,-0.81,
17:58:33:571,-2.69,0.31,7.74,3.29,-2.26,-0.81,
17:58:33:572,-2.69,0.31,7.74,3.31,-2.28,-0.79,
17:58:33:574,-2.69,0.31,7.74,3.26,-2.30,-0.81,
17:58:33:575,-2.62,0.36,7.07,3.26,-2.30,-0.81,
17:58:33:579,-2.62,0.36,7.07,3.13,-2.29,-0.87,
17:58:33:581,-2.79,0.51,5.51,3.13,-2.29,-0.87,
17:58:33:584,-2.79,0.51,5.51,2.88,-2.20,-0.97,
17:58:33:586,-3.52,0.91,3.15,2.88,-2.20,-0.97,
17:58:33:589,-4.54,1.27,0.85,2.88,-2.20,-0.97,
17:58:33:590,-4.54,1.27,0.85,2.49,-1.91,-1.07,
17:58:33:593,-4.54,1.27,0.85,1.97,-1.45,-1.16,
17:58:33:594,-5.77,1.41,-0.41,1.97,-1.45,-1.16,
17:58:33:601,-5.77,1.41,-0.41,1.35,-0.90,-1.24,
17:58:33:603,-6.95,1.28,0.02,1.35,-0.90,-1.24,
17:58:33:604,-6.95,1.28,0.02,0.72,-0.37,-1.30,
17:58:33:605,-7.80,1.02,2.29,0.72,-0.37,-1.30,
17:58:33:608,-7.80,1.02,2.29,0.17,0.05,-1.35,
17:58:33:609,-8.24,0.72,5.58,0.17,0.05,-1.35,
17:58:33:614,-8.24,0.72,5.58,-0.25,0.37,-1.40,
17:58:33:615,-8.54,0.23,9.21,-0.25,0.37,-1.40,
17:58:33:619,-8.54,0.23,9.21,-0.51,0.60,-1.44,
17:58:33:620,-8.87,-0.47,12.68,-0.51,0.60,-1.44,
17:58:33:622,-8.87,-0.47,12.68,-0.64,0.71,-1.51,
17:58:33:624,-9.52,-1.45,15.93,-0.64,0.71,-1.51,
17:58:33:627,-9.52,-1.45,15.93,-0.64,0.65,-1.57,
17:58:33:628,-10.31,-2.57,18.53,-0.64,0.65,-1.57,
17:58:33:677,-10.31,-2.57,18.53,-0.53,0.41,-1.65,
17:58:33:678,-11.01,-3.54,20.32,-0.53,0.41,-1.65,
17:58:33:678,-11.60,-4.15,20.92,-0.53,0.41,-1.65,
17:58:33:681,-11.60,-4.15,20.92,-0.33,0.02,-1.70,
17:58:33:682,-11.60,-4.15,20.92,-0.06,-0.47,-1.72,
17:58:33:683,-11.99,-4.37,20.37,-0.06,-0.47,-1.72,
17:58:33:685,-11.99,-4.37,20.37,0.25,-0.97,-1.70,
17:58:33:686,-11.94,-4.41,18.59,0.25,-0.97,-1.70,
17:58:33:687,-11.31,-4.28,15.99,0.25,-0.97,-1.70,
17:58:33:687,-11.31,-4.28,15.99,0.56,-1.43,-1.62,
17:58:33:688,-11.31,-4.28,15.99,0.85,-1.80,-1.52,
17:58:33:689,-10.19,-4.11,12.99,0.85,-1.80,-1.52,
17:58:33:689,-10.19,-4.11,12.99,1.08,-2.07,-1.40,
17:58:33:690,-8.76,-4.09,9.65,1.08,-2.07,-1.40,
17:58:33:691,-7.15,-4.29,6.38,1.08,-2.07,-1.40,
17:58:33:691,-7.15,-4.29,6.38,1.25,-2.23,-1.28,
17:58:33:692,-7.15,-4.29,6.38,1.37,-2.27,-1.18,
17:58:33:692,-5.47,-4.69,3.40,1.37,-2.27,-1.18,
17:58:33:693,-3.76,-5.20,0.87,1.37,-2.27,-1.18,
17:58:33:693,-3.76,-5.20,0.87,1.46,-2.19,-1.11,
17:58:33:693,-3.76,-5.20,0.87,1.54,-2.00,-1.08,
17:58:33:694,-2.09,-5.62,-1.21,1.54,-2.00,-1.08,
17:58:33:695,-2.09,-5.62,-1.21,1.63,-1.71,-1.10,
17:58:33:696,-0.50,-5.96,-2.93,1.63,-1.71,-1.10,
17:58:33:696,-0.50,-5.96,-2.93,1.73,-1.34,-1.15,
17:58:33:697,0.96,-6.28,-4.23,1.73,-1.34,-1.15,
17:58:33:698,0.96,-6.28,-4.23,1.85,-0.91,-1.24,
17:58:33:698,2.36,-6.60,-5.25,1.85,-0.91,-1.24,
17:58:33:700,2.36,-6.60,-5.25,1.99,-0.39,-1.38,
17:58:33:701,3.99,-6.99,-6.60,1.99,-0.39,-1.38,
17:58:33:705,4.40,-6.78,-6.47,1.99,-0.39,-1.38,
17:58:33:705,4.40,-6.78,-6.47,2.11,0.15,-1.60,
17:58:33:711,4.12,-6.56,-6.81,2.11,0.15,-1.60,
17:58:33:714,4.12,-6.56,-6.81,2.24,0.59,-1.77,
17:58:33:715,4.12,-6.56,-6.81,2.36,0.98,-1.90,
17:58:33:716,3.87,-6.64,-7.36,2.36,0.98,-1.90,
17:58:33:720,3.87,-6.64,-7.36,2.41,1.28,-2.01,
17:58:33:721,3.60,-6.67,-7.76,2.41,1.28,-2.01,
17:58:33:725,3.60,-6.67,-7.76,2.38,1.45,-2.12,
17:58:33:726,2.99,-6.50,-7.95,2.38,1.45,-2.12,
17:58:33:729,2.99,-6.50,-7.95,2.28,1.47,-2.23,
17:58:33:730,2.27,-6.36,-8.17,2.28,1.47,-2.23,
17:58:33:734,1.63,-6.40,-8.64,2.28,1.47,-2.23,
17:58:33:735,1.63,-6.40,-8.64,2.10,1.34,-2.31,
17:58:33:740,1.63,-6.40,-8.64,1.83,1.10,-2.37,
17:58:33:741,1.06,-6.55,-9.17,1.83,1.10,-2.37,
17:58:33:744,0.63,-6.64,-9.63,1.83,1.10,-2.37,
17:58:33:745,0.63,-6.64,-9.63,1.50,0.80,-2.41,
17:58:33:749,0.18,-6.67,-10.00,1.50,0.80,-2.41,
17:58:33:751,0.18,-6.67,-10.00,1.12,0.44,-2.43,
17:58:33:754,0.18,-6.67,-10.00,0.72,0.06,-2.43,
17:58:33:755,-0.30,-6.62,-10.38,0.72,0.06,-2.43,
17:58:33:758,-0.82,-6.54,-10.79,0.72,0.06,-2.43,
17:58:33:758,-0.82,-6.54,-10.79,0.33,-0.30,-2.41,
17:58:33:766,-1.38,-6.40,-11.10,0.33,-0.30,-2.41,
17:58:33:767,-1.38,-6.40,-11.10,-0.05,-0.61,-2.36,
17:58:33:768,-1.38,-6.40,-11.10,-0.39,-0.84,-2.26,
17:58:33:768,-2.02,-6.18,-11.39,-0.39,-0.84,-2.26,
17:58:33:773,-2.02,-6.18,-11.39,-0.68,-0.99,-2.13,
17:58:33:773,-2.62,-5.92,-11.73,-0.68,-0.99,-2.13,
17:58:33:778,-2.62,-5.92,-11.73,-0.93,-1.04,-1.96,
17:58:33:782,-3.02,-5.70,-12.19,-0.93,-1.04,-1.96,
17:58:33:783,-3.24,-5.51,-12.47,-0.93,-1.04,-1.96,
17:58:33:784,-3.24,-5.51,-12.47,-1.12,-0.98,-1.76,
17:58:33:787,-3.37,-5.08,-12.33,-1.12,-0.98,-1.76,
17:58:33:788,-3.37,-5.08,-12.33,-1.26,-0.82,-1.52,
17:58:33:792,-3.37,-5.08,-12.33,-1.34,-0.61,-1.27,
17:58:33:792,-3.26,-4.76,-12.04,-1.34,-0.61,-1.27,
17:58:33:798,-3.26,-4.76,-12.04,-1.37,-0.35,-1.01,
17:58:33:799,-3.07,-4.55,-11.54,-1.37,-0.35,-1.01,
17:58:33:801,-2.82,-4.45,-11.10,-1.37,-0.35,-1.01,
17:58:33:802,-2.82,-4.45,-11.10,-1.35,-0.06,-0.76,
17:58:33:806,-2.82,-4.45,-11.10,-1.30,0.24,-0.54,
17:58:33:807,-2.39,-4.52,-10.84,-1.30,0.24,-0.54,
17:58:33:811,-1.83,-4.77,-10.81,-1.30,0.24,-0.54,
17:58:33:813,-1.83,-4.77,-10.81,-1.27,0.51,-0.35,
17:58:33:817,-1.83,-4.77,-10.81,-1.29,0.71,-0.21,
17:58:33:818,-1.32,-5.18,-10.98,-1.29,0.71,-0.21,
17:58:33:821,-1.32,-5.18,-10.98,-1.38,0.84,-0.12,
17:58:33:821,-0.91,-5.68,-11.39,-1.38,0.84,-0.12,
17:58:33:831,-0.82,-6.06,-11.39,-1.38,0.84,-0.12,
17:58:33:831,-0.82,-6.06,-11.39,-1.55,0.90,-0.07,
17:58:33:832,-0.82,-6.06,-11.39,-1.77,0.88,-0.05,
17:58:33:832,-0.88,-6.33,-10.96,-1.77,0.88,-0.05,
17:58:33:836,-1.24,-6.42,-10.17,-1.77,0.88,-0.05,
17:58:33:837,-1.24,-6.42,-10.17,-2.02,0.81,-0.04,
17:58:33:853,-1.87,-6.38,-9.31,-2.02,0.81,-0.04,
17:58:33:870,-1.87,-6.38,-9.31,-2.28,0.69,-0.02,
17:58:33:874,-1.87,-6.38,-9.31,-2.53,0.58,0.01,
17:58:33:875,-2.46,-6.33,-8.82,-2.53,0.58,0.01,
17:58:33:876,-2.46,-6.33,-8.82,-2.74,0.48,0.06,
17:58:33:876,-3.07,-6.29,-8.15,-2.74,0.48,0.06,
17:58:33:877,-3.07,-6.29,-8.15,-2.92,0.38,0.13,
17:58:33:877,-4.00,-6.15,-7.03,-2.92,0.38,0.13,
17:58:33:878,-5.14,-5.99,-6.01,-2.92,0.38,0.13,
17:58:33:878,-5.14,-5.99,-6.01,-3.05,0.26,0.23,
17:58:33:879,-5.14,-5.99,-6.01,-3.14,0.14,0.36,
17:58:33:880,-6.39,-5.80,-5.25,-3.14,0.14,0.36,
17:58:33:881,-7.47,-5.62,-4.70,-3.14,0.14,0.36,
17:58:33:882,-7.47,-5.62,-4.70,-3.19,0.04,0.53,
17:58:33:915,-8.41,-5.36,-4.20,-3.19,0.04,0.53,
17:58:33:916,-8.41,-5.36,-4.20,-3.19,-0.03,0.73,
17:58:33:917,-9.13,-4.97,-3.67,-3.19,-0.03,0.73,
17:58:33:918,-9.13,-4.97,-3.67,-3.15,-0.08,0.94,
17:58:33:919,-9.13,-4.97,-3.67,-3.05,-0.09,1.17,
17:58:33:919,-9.65,-4.33,-3.09,-3.05,-0.09,1.17,
17:58:33:920,-9.65,-4.33,-3.09,-2.92,-0.03,1.39,
17:58:33:920,-10.08,-3.57,-2.70,-2.92,-0.03,1.39,
17:58:33:921,-10.63,-2.64,-2.61,-2.92,-0.03,1.39,
17:58:33:923,-10.63,-2.64,-2.61,-2.76,0.15,1.61,
17:58:33:924,-10.63,-2.64,-2.61,-2.66,0.49,1.84,
17:58:33:925,-10.99,-1.56,-2.54,-2.66,0.49,1.84,
17:58:33:926,-10.99,-1.56,-2.54,-2.65,1.02,2.08,
17:58:33:926,-10.85,-0.60,-2.44,-2.65,1.02,2.08,
17:58:33:927,-10.85,-0.60,-2.44,-2.77,1.72,2.34,
17:58:33:928,-10.48,0.29,-1.66,-2.77,1.72,2.34,
17:58:33:929,-10.23,0.93,0.22,-2.77,1.72,2.34,
17:58:33:930,-10.23,0.93,0.22,-3.01,2.51,2.60,
17:58:33:930,-10.23,0.93,0.22,-3.31,3.28,2.83,
17:58:33:931,-10.29,0.99,3.21,-3.31,3.28,2.83,
17:58:33:931,-10.29,0.99,3.21,-3.60,3.97,2.98,
17:58:33:932,-10.80,0.46,7.13,-3.60,3.97,2.98,
17:58:33:933,-10.80,0.46,7.13,-3.85,4.57,3.02,
17:58:33:934,-11.38,-0.40,11.63,-3.85,4.57,3.02,
17:58:33:935,-11.38,-0.40,11.63,-4.05,5.03,2.92,
17:58:33:936,-11.89,-1.14,16.59,-4.05,5.03,2.92,
17:58:33:938,-12.66,-1.22,22.34,-4.05,5.03,2.92,
17:58:33:939,-12.66,-1.22,22.34,-4.16,5.29,2.69,
17:58:33:942,-12.66,-1.22,22.34,-4.13,5.23,2.41,
17:58:33:943,-13.84,-0.46,28.27,-4.13,5.23,2.41,
17:58:33:947,-13.84,-0.46,28.27,-3.93,4.83,2.16,
17:58:33:948,-15.18,0.77,32.46,-3.93,4.83,2.16,
17:58:33:952,-15.18,0.77,32.46,-3.58,4.17,1.99,
17:58:33:953,-16.30,2.01,32.52,-3.58,4.17,1.99,
17:58:33:957,-16.88,3.00,32.55,-3.58,4.17,1.99,
17:58:33:958,-16.88,3.00,32.55,-3.15,3.29,1.94,
17:58:33:962,-16.80,3.82,32.56,-3.15,3.29,1.94,
17:58:33:962,-16.80,3.82,32.56,-2.67,2.26,1.99,
17:58:33:966,-15.86,4.41,32.53,-2.67,2.26,1.99,
17:58:33:967,-15.86,4.41,32.53,-2.20,1.15,2.12,
17:58:33:971,-14.11,4.74,29.60,-2.20,1.15,2.12,
17:58:33:972,-14.11,4.74,29.60,-1.76,0.10,2.30,
17:58:33:976,-11.75,4.80,25.11,-1.76,0.10,2.30,
17:58:33:977,-11.75,4.80,25.11,-1.37,-0.77,2.50,
17:58:33:981,-11.75,4.80,25.11,-1.00,-1.38,2.69,
17:58:33:982,-9.16,4.61,20.97,-1.00,-1.38,2.69,
17:58:33:986,-6.40,4.02,17.52,-1.00,-1.38,2.69,
17:58:33:986,-6.40,4.02,17.52,-0.65,-1.73,2.85,
17:58:33:991,-6.40,4.02,17.52,-0.28,-1.87,2.95,
17:58:33:992,-3.62,3.13,14.61,-0.28,-1.87,2.95,
17:58:33:996,-3.62,3.13,14.61,0.12,-1.86,2.99,
17:58:33:997,-1.04,2.14,11.99,0.12,-1.86,2.99,
17:58:34:001,-1.04,2.14,11.99,0.56,-1.70,2.96,
17:58:34:002,1.35,1.24,9.65,0.56,-1.70,2.96,
17:58:34:006,1.35,1.24,9.65,1.02,-1.43,2.89,
17:58:34:007,3.40,0.50,7.42,1.02,-1.43,2.89,
17:58:34:011,3.40,0.50,7.42,1.49,-1.08,2.78,
17:58:34:013,5.02,-0.09,5.12,1.49,-1.08,2.78,
17:58:34:016,5.02,-0.09,5.12,1.94,-0.67,2.65,
17:58:34:017,6.21,-0.61,2.80,1.94,-0.67,2.65,
17:58:34:020,6.21,-0.61,2.80,2.35,-0.20,2.53,
17:58:34:022,7.09,-1.10,0.65,2.35,-0.20,2.53,
17:58:34:026,7.82,-1.52,-1.22,2.35,-0.20,2.53,
17:58:34:027,7.82,-1.52,-1.22,2.71,0.29,2.41,
17:58:34:032,7.82,-1.52,-1.22,2.99,0.78,2.30,
17:58:34:034,8.40,-1.91,-2.89,2.99,0.78,2.30,
17:58:34:035,8.40,-1.91,-2.89,3.21,1.25,2.19,
17:58:34:036,9.00,-2.37,-4.20,3.21,1.25,2.19,
17:58:34:040,9.00,-2.37,-4.20,3.35,1.66,2.08,
17:58:34:041,9.56,-2.87,-5.27,3.35,1.66,2.08,
17:58:34:045,10.14,-3.36,-6.11,3.35,1.66,2.08,
17:58:34:046,10.14,-3.36,-6.11,3.42,2.01,1.97,
17:58:34:050,10.14,-3.36,-6.11,3.42,2.28,1.85,
17:58:34:051,10.60,-3.74,-6.85,3.42,2.28,1.85,
17:58:34:055,10.60,-3.74,-6.85,3.34,2.47,1.73,
17:58:34:057,10.96,-4.05,-7.42,3.34,2.47,1.73,
17:58:34:061,10.96,-4.05,-7.42,3.19,2.59,1.60,
17:58:34:063,11.23,-4.24,-7.83,3.19,2.59,1.60,
17:58:34:065,11.23,-4.24,-7.83,2.99,2.65,1.47,
17:58:34:066,11.48,-4.38,-7.97,2.99,2.65,1.47,
17:58:34:077,11.48,-4.38,-7.97,2.75,2.66,1.35,
17:58:34:079,11.65,-4.40,-7.88,2.75,2.66,1.35,
17:58:34:081,11.84,-4.41,-7.71,2.75,2.66,1.35,
17:58:34:082,11.84,-4.41,-7.71,2.47,2.62,1.23,
17:58:34:083,11.84,-4.41,-7.71,2.19,2.54,1.11,
17:58:34:084,12.04,-4.29,-7.17,2.19,2.54,1.11,
17:58:34:085,12.19,-4.09,-6.57,2.19,2.54,1.11,
17:58:34:086,12.19,-4.09,-6.57,1.89,2.41,1.00,
17:58:34:089,12.19,-4.09,-6.57,1.58,2.21,0.89,
17:58:34:092,12.31,-3.80,-5.87,1.58,2.21,0.89,
17:58:34:094,12.31,-3.80,-5.87,1.28,1.95,0.80,
17:58:34:095,12.30,-3.64,-5.37,1.28,1.95,0.80,
17:58:34:097,12.30,-3.64,-5.37,0.98,1.67,0.72,
17:58:34:098,12.49,-3.49,-5.07,0.98,1.67,0.72,
17:58:34:103,12.49,-3.49,-5.07,0.65,1.36,0.64,
17:58:34:103,12.71,-3.20,-4.94,0.65,1.36,0.64,
17:58:34:108,12.71,-3.20,-4.94,0.29,0.99,0.56,
17:58:34:108,13.04,-2.97,-4.92,0.29,0.99,0.56,
17:58:34:112,13.04,-2.97,-4.92,-0.11,0.57,0.48,
17:58:34:113,13.27,-2.65,-4.56,-0.11,0.57,0.48,
17:58:34:141,13.27,-2.65,-4.56,-0.51,0.05,0.41,
17:58:34:142,13.31,-2.69,-4.65,-0.51,0.05,0.41,
17:58:34:142,13.31,-2.69,-4.65,-0.92,-0.48,0.35,
17:58:34:143,13.52,-2.78,-4.51,-0.92,-0.48,0.35,
17:58:34:143,13.52,-2.78,-4.51,-1.37,-1.03,0.28,
17:58:34:144,13.87,-2.83,-4.94,-1.37,-1.03,0.28,
17:58:34:144,13.87,-2.83,-4.94,-1.84,-1.62,0.19,
17:58:34:145,14.11,-2.82,-5.29,-1.84,-1.62,0.19,
17:58:34:146,14.11,-2.82,-5.29,-2.33,-2.23,0.10,
17:58:34:147,14.16,-2.78,-5.71,-2.33,-2.23,0.10,
17:58:34:147,14.16,-2.78,-5.71,-2.82,-2.85,0.02,
17:58:34:148,13.94,-2.64,-6.04,-2.82,-2.85,0.02,
17:58:34:148,13.94,-2.64,-6.04,-3.27,-3.41,-0.03,
17:58:34:148,13.56,-2.38,-6.37,-3.27,-3.41,-0.03,
17:58:34:152,13.56,-2.38,-6.37,-3.68,-3.86,-0.04,
17:58:34:153,13.27,-2.11,-6.73,-3.68,-3.86,-0.04,
17:58:34:156,13.27,-2.11,-6.73,-4.03,-4.20,-0.02,
17:58:34:157,13.14,-1.78,-7.18,-4.03,-4.20,-0.02,
17:58:34:161,13.14,-1.78,-7.18,-4.32,-4.43,0.02,
17:58:34:162,13.19,-1.64,-7.72,-4.32,-4.43,0.02,
17:58:34:166,13.14,-1.80,-8.17,-4.32,-4.43,0.02,
17:58:34:167,13.14,-1.80,-8.17,-4.59,-4.58,0.06,
17:58:34:171,13.14,-1.80,-8.17,-4.81,-4.64,0.10,
17:58:34:172,12.90,-2.25,-8.28,-4.81,-4.64,0.10,
17:58:34:175,12.90,-2.25,-8.28,-4.99,-4.61,0.14,
17:58:34:176,12.65,-2.84,-7.74,-4.99,-4.61,0.14,
17:58:34:180,12.65,-2.84,-7.74,-5.10,-4.51,0.16,
17:58:34:181,12.61,-3.43,-6.64,-5.10,-4.51,0.16,
17:58:34:185,12.61,-3.43,-6.64,-5.13,-4.39,0.17,
17:58:34:186,12.88,-4.16,-5.17,-5.13,-4.39,0.17,
17:58:34:190,13.55,-5.07,-3.48,-5.13,-4.39,0.17,
17:58:34:191,13.55,-5.07,-3.48,-5.10,-4.25,0.13,
17:58:34:195,14.43,-5.94,-1.45,-5.10,-4.25,0.13,
17:58:34:196,14.43,-5.94,-1.45,-4.98,-4.08,0.03,
17:58:34:200,14.43,-5.94,-1.45,-4.75,-3.89,-0.17,
17:58:34:200,14.93,-6.60,0.90,-4.75,-3.89,-0.17,
17:58:34:205,14.93,-6.60,0.90,-4.41,-3.61,-0.45,
17:58:34:205,14.90,-7.98,2.59,-4.41,-3.61,-0.45,
17:58:34:209,14.90,-7.98,2.59,-3.98,-3.20,-0.81,
17:58:34:210,15.14,-9.28,4.60,-3.98,-3.20,-0.81,
17:58:34:214,15.33,-10.40,6.61,-3.98,-3.20,-0.81,
17:58:34:215,15.33,-10.40,6.61,-3.49,-2.74,-1.27,
17:58:34:219,15.33,-10.40,6.61,-2.96,-2.28,-1.81,
17:58:34:219,15.04,-11.33,8.52,-2.96,-2.28,-1.81,
17:58:34:225,13.78,-11.90,10.91,-2.96,-2.28,-1.81,
17:58:34:225,13.78,-11.90,10.91,-2.41,-1.83,-2.43,
17:58:34:229,11.66,-12.02,13.68,-2.41,-1.83,-2.43,
17:58:34:229,11.66,-12.02,13.68,-1.83,-1.39,-3.07,
17:58:34:234,8.91,-11.69,16.82,-1.83,-1.39,-3.07,
17:58:34:235,8.91,-11.69,16.82,-1.21,-1.00,-3.71,
17:58:34:240,5.32,-10.93,19.81,-1.21,-1.00,-3.71,
17:58:34:241,5.32,-10.93,19.81,-0.55,-0.76,-4.27,
17:58:34:243,0.87,-9.71,22.02,-0.55,-0.76,-4.27,
17:58:34:244,0.87,-9.71,22.02,0.14,-0.74,-4.72,
17:58:34:249,0.87,-9.71,22.02,0.83,-0.99,-5.00,
17:58:34:249,-3.91,-7.98,23.56,0.83,-0.99,-5.00,
17:58:34:253,-3.91,-7.98,23.56,1.49,-1.41,-5.07,
17:58:34:254,-8.18,-5.99,24.05,1.49,-1.41,-5.07,
17:58:34:257,-8.18,-5.99,24.05,2.09,-1.88,-4.97,
17:58:34:258,-10.94,-4.12,23.04,2.09,-1.88,-4.97,
17:58:34:265,-11.79,-2.61,19.79,2.09,-1.88,-4.97,
17:58:34:271,-11.79,-2.61,19.79,2.54,-2.23,-4.76,
17:58:34:273,-11.79,-2.61,19.79,2.72,-2.31,-4.54,
17:58:34:274,-11.53,-1.28,15.47,2.72,-2.31,-4.54,
17:58:34:275,-11.53,-1.28,15.47,2.57,-2.10,-4.34,
17:58:34:280,-11.03,-0.08,11.69,2.57,-2.10,-4.34,
17:58:34:281,-11.03,-0.08,11.69,2.14,-1.72,-4.18,
17:58:34:282,-10.88,0.66,9.84,2.14,-1.72,-4.18,
17:58:34:283,-11.57,0.58,10.48,2.14,-1.72,-4.18,
17:58:34:283,-11.57,0.58,10.48,1.55,-1.34,-4.06,
17:58:34:287,-12.88,-0.39,12.99,1.55,-1.34,-4.06,
17:58:34:288,-12.88,-0.39,12.99,0.95,-1.11,-3.97,
17:58:34:291,-12.88,-0.39,12.99,0.44,-1.10,-3.91,
17:58:34:292,-13.63,-1.82,16.28,0.44,-1.10,-3.91,
17:58:34:297,-13.63,-1.82,16.28,0.07,-1.31,-3.89,
17:58:34:298,-13.25,-3.10,19.22,0.07,-1.31,-3.89,
17:58:34:304,-12.51,-3.80,21.43,0.07,-1.31,-3.89,
17:58:34:305,-12.51,-3.80,21.43,-0.16,-1.74,-3.94,
17:58:34:306,-12.31,-3.84,22.78,-0.16,-1.74,-3.94,
17:58:34:307,-12.31,-3.84,22.78,-0.28,-2.29,-4.05,
17:58:34:313,-12.38,-3.70,22.51,-0.28,-2.29,-4.05,
17:58:34:314,-12.38,-3.70,22.51,-0.28,-2.87,-4.15,
17:58:34:322,-12.46,-3.59,21.34,-0.28,-2.87,-4.15,
17:58:34:323,-12.46,-3.59,21.34,-0.21,-3.37,-4.23,
17:58:34:324,-12.44,-3.56,19.58,-0.21,-3.37,-4.23,
17:58:34:324,-12.44,-3.56,19.58,-0.09,-3.76,-4.29,
17:58:34:325,-12.41,-3.48,17.55,-0.09,-3.76,-4.29,
17:58:34:326,-12.41,-3.48,17.55,0.05,-4.08,-4.34,
17:58:34:333,-12.41,-3.48,17.55,0.20,-4.34,-4.36,
17:58:34:334,-12.24,-3.31,14.93,0.20,-4.34,-4.36,
17:58:34:336,-12.06,-2.83,11.78,0.20,-4.34,-4.36,
17:58:34:342,-12.06,-2.83,11.78,0.35,-4.52,-4.37,
17:58:34:344,-11.96,-1.94,8.55,0.35,-4.52,-4.37,
17:58:34:345,-11.96,-1.94,8.55,0.46,-4.62,-4.35,
17:58:34:349,-11.89,-0.83,5.41,0.46,-4.62,-4.35,
17:58:34:352,-11.89,-0.83,5.41,0.51,-4.64,-4.29,
17:58:34:352,-11.91,0.68,2.13,0.51,-4.64,-4.29,
17:58:34:353,-11.91,0.68,2.13,0.51,-4.60,-4.20,
17:58:34:357,-11.91,0.68,2.13,0.44,-4.51,-4.04,
17:58:34:358,-12.27,2.56,-0.86,0.44,-4.51,-4.04,
17:58:34:405,-12.68,4.50,-4.03,0.44,-4.51,-4.04,
17:58:34:406,-12.68,4.50,-4.03,0.34,-4.36,-3.78,
17:58:34:409,-12.68,4.50,-4.03,0.20,-4.16,-3.39,
17:58:34:416,-12.86,6.25,-7.13,0.20,-4.16,-3.39,
17:58:34:417,-13.17,8.50,-9.95,0.20,-4.16,-3.39,
17:58:34:418,-13.17,8.50,-9.95,0.05,-3.81,-2.88,
17:58:34:420,-13.17,8.50,-9.95,-0.11,-3.31,-2.26,
17:58:34:421,-13.26,10.48,-12.44,-0.11,-3.31,-2.26,
17:58:34:422,-13.26,10.48,-12.44,-0.28,-2.67,-1.55,
17:58:34:423,-12.31,10.67,-14.51,-0.28,-2.67,-1.55,
17:58:34:424,-10.80,9.76,-15.57,-0.28,-2.67,-1.55,
17:58:34:425,-10.80,9.76,-15.57,-0.49,-1.95,-0.88,
17:58:34:426,-9.07,8.31,-15.45,-0.49,-1.95,-0.88,
17:58:34:427,-9.07,8.31,-15.45,-0.73,-1.25,-0.30,
17:58:34:428,-9.07,8.31,-15.45,-0.98,-0.66,0.15,
17:58:34:429,-7.45,6.67,-14.24,-0.98,-0.66,0.15,
17:58:34:431,-7.45,6.67,-14.24,-1.21,-0.24,0.49,
17:58:34:432,-6.31,5.19,-12.03,-1.21,-0.24,0.49,
17:58:34:433,-6.31,5.19,-12.03,-1.38,-0.01,0.74,
17:58:34:433,-5.69,3.98,-9.82,-1.38,-0.01,0.74,
17:58:34:434,-5.69,3.98,-9.82,-1.47,0.11,0.94,
17:58:34:435,-4.75,2.86,-8.22,-1.47,0.11,0.94,
17:58:34:436,-4.75,2.86,-8.22,-1.50,0.15,1.04,
17:58:34:437,-3.73,1.92,-6.98,-1.50,0.15,1.04,
17:58:34:438,-3.73,1.92,-6.98,-1.50,0.10,1.06,
17:58:34:438,-2.89,1.20,-6.35,-1.50,0.10,1.06,
17:58:34:439,-2.33,0.55,-6.36,-1.50,0.10,1.06,
17:58:34:439,-2.33,0.55,-6.36,-1.48,-0.00,1.01,
17:58:34:440,-2.33,0.55,-6.36,-1.47,-0.13,0.92,
17:58:34:440,-2.07,0.16,-6.67,-1.47,-0.13,0.92,
17:58:34:441,-2.11,0.04,-7.12,-1.47,-0.13,0.92,
17:58:34:442,-2.11,0.04,-7.12,-1.45,-0.25,0.83,
17:58:34:445,-2.08,-0.13,-7.76,-1.45,-0.25,0.83,
17:58:34:447,-2.08,-0.13,-7.76,-1.42,-0.35,0.75,
17:58:34:448,-2.01,-0.32,-8.45,-1.42,-0.35,0.75,
17:58:34:449,-2.01,-0.32,-8.45,-1.36,-0.41,0.69,
17:58:34:449,-2.01,-0.32,-8.45,-1.28,-0.44,0.64,
17:58:34:451,-1.95,-0.74,-9.18,-1.28,-0.44,0.64,
17:58:34:454,-1.95,-0.74,-9.18,-1.19,-0.42,0.60,
17:58:34:454,-1.81,-1.58,-9.81,-1.19,-0.42,0.60,
17:58:34:457,-1.47,-2.28,-9.95,-1.19,-0.42,0.60,
17:58:34:457,-1.47,-2.28,-9.95,-1.10,-0.37,0.57,
17:58:34:461,-1.47,-2.28,-9.95,-0.99,-0.32,0.54,
17:58:34:462,-1.16,-2.91,-9.88,-0.99,-0.32,0.54,
17:58:34:467,-0.80,-3.39,-9.72,-0.99,-0.32,0.54,
17:58:34:467,-0.80,-3.39,-9.72,-0.88,-0.31,0.50,
17:58:34:471,-0.80,-3.39,-9.72,-0.76,-0.31,0.45,
17:58:34:472,-0.34,-3.73,-9.72,-0.76,-0.31,0.45,
17:58:34:480,0.25,-3.95,-9.99,-0.76,-0.31,0.45,
17:58:34:481,0.25,-3.95,-9.99,-0.65,-0.31,0.38,
17:58:34:481,0.25,-3.95,-9.99,-0.57,-0.32,0.27,
17:58:34:481,0.66,-3.98,-10.36,-0.57,-0.32,0.27,
17:58:34:485,0.66,-3.98,-10.36,-0.51,-0.32,0.15,
17:58:34:486,0.81,-3.93,-10.66,-0.51,-0.32,0.15,
17:58:34:491,0.81,-3.93,-10.66,-0.48,-0.34,0.03,
17:58:34:492,0.55,-3.84,-10.81,-0.48,-0.34,0.03,
17:58:34:496,-0.14,-3.74,-10.89,-0.48,-0.34,0.03,
17:58:34:497,-0.14,-3.74,-10.89,-0.44,-0.35,-0.06,
17:58:34:501,-1.21,-3.71,-11.04,-0.44,-0.35,-0.06,
17:58:34:502,-1.21,-3.71,-11.04,-0.39,-0.33,-0.10,
17:58:34:505,-2.40,-3.96,-11.32,-0.39,-0.33,-0.10,
17:58:34:506,-2.40,-3.96,-11.32,-0.31,-0.28,-0.10,
17:58:34:510,-3.66,-4.40,-11.60,-0.31,-0.28,-0.10,
17:58:34:510,-3.66,-4.40,-11.60,-0.23,-0.19,-0.03,
17:58:34:515,-3.66,-4.40,-11.60,-0.16,-0.13,0.08,
17:58:34:516,-4.70,-5.05,-11.91,-0.16,-0.13,0.08,
17:58:34:520,-5.44,-6.01,-12.39,-0.16,-0.13,0.08,
17:58:34:520,-5.44,-6.01,-12.39,-0.12,-0.13,0.26,
17:58:34:526,-5.44,-6.01,-12.39,-0.13,-0.15,0.47,
17:58:34:527,-5.62,-7.19,-13.20,-0.13,-0.15,0.47,
17:58:34:529,-5.33,-8.37,-14.01,-0.13,-0.15,0.47,
17:58:34:530,-5.33,-8.37,-14.01,-0.21,-0.17,0.67,
17:58:34:534,-5.33,-8.37,-14.01,-0.37,-0.18,0.83,
17:58:34:535,-4.59,-9.46,-14.49,-0.37,-0.18,0.83,
17:58:34:540,-4.59,-9.46,-14.49,-0.56,-0.19,0.91,
17:58:34:541,-3.55,-10.10,-14.28,-0.56,-0.19,0.91,
17:58:34:544,-3.55,-10.10,-14.28,-0.77,-0.18,0.92,
17:58:34:544,-3.03,-10.97,-14.04,-0.77,-0.18,0.92,
17:58:34:549,-3.03,-10.97,-14.04,-0.96,-0.09,0.86,
17:58:34:550,-2.65,-11.34,-13.33,-0.96,-0.09,0.86,
17:58:34:554,-2.57,-11.21,-12.04,-0.96,-0.09,0.86,
17:58:34:554,-2.57,-11.21,-12.04,-1.14,0.06,0.77,
17:58:34:559,-2.76,-10.85,-10.83,-1.14,0.06,0.77,
17:58:34:559,-2.76,-10.85,-10.83,-1.29,0.24,0.66,
17:58:34:563,-3.10,-10.38,-9.08,-1.29,0.24,0.66,
17:58:34:564,-3.10,-10.38,-9.08,-1.43,0.44,0.55,
17:58:34:570,-3.10,-10.38,-9.08,-1.56,0.63,0.46,
17:58:34:571,-3.64,-9.58,-7.14,-1.56,0.63,0.46,
17:58:34:573,-3.64,-9.58,-7.14,-1.69,0.83,0.41,
17:58:34:574,-4.32,-8.46,-4.80,-1.69,0.83,0.41,
17:58:34:578,-4.32,-8.46,-4.80,-1.79,1.01,0.41,
17:58:34:579,-4.98,-7.12,-1.63,-1.79,1.01,0.41,
17:58:34:585,-4.98,-7.12,-1.63,-1.84,1.14,0.47,
17:58:34:589,-5.39,-5.80,2.23,-1.84,1.14,0.47,
17:58:34:592,-5.39,-5.80,2.23,-1.83,1.16,0.60,
17:58:34:594,-5.72,-4.65,6.29,-1.83,1.16,0.60,
17:58:34:595,-5.72,-4.65,6.29,-1.74,1.09,0.78,
17:58:34:595,-6.21,-3.68,9.72,-1.74,1.09,0.78,
17:58:34:597,-7.18,-2.49,12.19,-1.74,1.09,0.78,
17:58:34:598,-7.18,-2.49,12.19,-1.59,0.96,1.00,
17:58:34:648,-7.18,-2.49,12.19,-1.38,0.82,1.29,
17:58:34:649,-8.24,-1.25,13.48,-1.38,0.82,1.29,
17:58:34:650,-8.69,-0.39,13.67,-1.38,0.82,1.29,
17:58:34:651,-8.69,-0.39,13.67,-1.16,0.75,1.66,
17:58:34:652,-8.57,0.45,13.24,-1.16,0.75,1.66,
17:58:34:652,-8.57,0.45,13.24,-0.99,0.78,2.10,
17:58:34:653,-8.57,0.45,13.24,-0.91,0.97,2.59,
17:58:34:654,-7.92,1.26,12.87,-0.91,0.97,2.59,
17:58:34:654,-6.71,1.72,13.34,-0.91,0.97,2.59,
17:58:34:655,-6.71,1.72,13.34,-0.91,1.30,3.07,
17:58:34:656,-5.32,1.95,15.59,-0.91,1.30,3.07,
17:58:34:656,-5.32,1.95,15.59,-0.93,1.71,3.49,
17:58:34:657,-5.32,1.95,15.59,-0.93,2.01,3.83,
17:58:34:658,-3.98,1.27,18.10,-0.93,2.01,3.83,
17:58:34:658,-2.57,-0.72,20.03,-0.93,2.01,3.83,
17:58:34:660,-2.57,-0.72,20.03,-0.90,2.15,4.02,
17:58:34:661,-1.48,-2.38,22.29,-0.90,2.15,4.02,
17:58:34:662,-1.48,-2.38,22.29,-0.87,2.20,4.02,
17:58:34:663,-1.48,-2.38,22.29,-0.80,2.10,3.82,
17:58:34:663,-0.95,-3.02,23.25,-0.80,2.10,3.82,
17:58:34:664,-0.69,-2.30,22.33,-0.80,2.10,3.82,
17:58:34:665,-0.69,-2.30,22.33,-0.76,1.86,3.49,
17:58:34:665,-0.69,-2.30,22.33,-0.84,1.51,3.04,
17:58:34:666,-0.23,-0.40,21.96,-0.84,1.51,3.04,
17:58:34:666,-0.23,-0.40,21.96,-0.99,1.01,2.49,
17:58:34:667,0.56,2.91,21.22,-0.99,1.01,2.49,
17:58:34:667,0.80,5.75,19.26,-0.99,1.01,2.49,
17:58:34:668,0.80,5.75,19.26,-1.15,0.45,1.82,
17:58:34:671,-0.92,4.15,17.15,-1.15,0.45,1.82,
17:58:34:672,-0.92,4.15,17.15,-1.33,-0.02,1.11,
17:58:34:675,-4.11,0.93,16.08,-1.33,-0.02,1.11,
17:58:34:676,-4.11,0.93,16.08,-1.52,-0.42,0.58,
17:58:34:680,-7.41,-1.23,16.07,-1.52,-0.42,0.58,
17:58:34:681,-7.41,-1.23,16.07,-1.63,-0.87,0.37,
17:58:34:687,-7.41,-1.23,16.07,-1.59,-1.32,0.52,
17:58:34:688,-10.28,-2.29,15.12,-1.59,-1.32,0.52,
17:58:34:690,-11.26,-3.08,12.93,-1.59,-1.32,0.52,
17:58:34:691,-11.26,-3.08,12.93,-1.40,-1.72,0.96,
17:58:34:695,-11.05,-2.94,9.97,-1.40,-1.72,0.96,
17:58:34:697,-11.05,-2.94,9.97,-1.13,-1.95,1.55,
17:58:34:700,-10.30,-2.36,7.47,-1.13,-1.95,1.55,
17:58:34:701,-10.30,-2.36,7.47,-0.80,-2.05,2.20,
17:58:34:704,-8.77,-1.05,4.61,-0.80,-2.05,2.20,
17:58:34:705,-8.77,-1.05,4.61,-0.47,-2.10,2.88,
17:58:34:709,-8.77,-1.05,4.61,-0.16,-2.08,3.49,
17:58:34:710,-5.52,0.23,1.66,-0.16,-2.08,3.49,
17:58:34:714,-1.51,0.43,-0.43,-0.16,-2.08,3.49,
17:58:34:714,-1.51,0.43,-0.43,0.11,-1.91,3.94,
17:58:34:719,-1.51,0.43,-0.43,0.36,-1.52,4.19,
17:58:34:720,2.37,0.02,-0.88,0.36,-1.52,4.19,
17:58:34:724,5.61,-0.75,-0.15,0.36,-1.52,4.19,
17:58:34:724,5.61,-0.75,-0.15,0.64,-0.91,4.27,
17:58:34:728,8.15,-1.82,1.39,0.64,-0.91,4.27,
17:58:34:729,8.15,-1.82,1.39,1.00,-0.18,4.20,
17:58:34:733,8.15,-1.82,1.39,1.43,0.50,4.01,
17:58:34:734,9.70,-2.82,3.44,1.43,0.50,4.01,
17:58:34:738,9.70,-2.82,3.44,1.90,0.95,3.74,
17:58:34:739,10.49,-3.66,4.80,1.90,0.95,3.74,
17:58:34:743,10.88,-4.52,5.59,1.90,0.95,3.74,
17:58:34:743,10.88,-4.52,5.59,2.37,1.19,3.43,
17:58:34:749,10.70,-5.10,5.58,2.37,1.19,3.43,
17:58:34:750,10.70,-5.10,5.58,2.80,1.26,3.08,
17:58:34:753,10.19,-5.15,5.17,2.80,1.26,3.08,
17:58:34:753,10.19,-5.15,5.17,3.14,1.20,2.73,
17:58:34:758,10.19,-5.15,5.17,3.37,1.05,2.40,
17:58:34:758,9.53,-4.68,4.88,3.37,1.05,2.40,
17:58:34:764,9.53,-4.68,4.88,3.50,0.87,2.12,
17:58:34:764,9.11,-3.99,3.75,3.50,0.87,2.12,
17:58:34:767,9.05,-3.34,2.50,3.50,0.87,2.12,
17:58:34:768,9.05,-3.34,2.50,3.49,0.67,1.91,
17:58:34:773,9.15,-3.02,1.07,3.49,0.67,1.91,
17:58:34:774,9.15,-3.02,1.07,3.33,0.45,1.74,
17:58:34:778,8.93,-2.67,-0.22,3.33,0.45,1.74,
17:58:34:779,8.93,-2.67,-0.22,3.07,0.16,1.59,
17:58:34:782,8.93,-2.67,-0.22,2.79,-0.20,1.46,
17:58:34:782,8.07,-1.95,-0.74,2.79,-0.20,1.46,
17:58:34:787,8.07,-1.95,-0.74,2.62,-0.58,1.38,
17:58:34:787,6.75,-0.86,-0.17,2.62,-0.58,1.38,
17:58:34:792,6.75,-0.86,-0.17,2.67,-0.88,1.39,
17:58:34:793,5.48,0.30,0.20,2.67,-0.88,1.39,
17:58:34:797,4.68,1.12,-0.42,2.67,-0.88,1.39,
17:58:34:798,4.68,1.12,-0.42,2.96,-0.98,1.50,
17:58:34:802,4.38,0.90,-1.75,2.96,-0.98,1.50,
17:58:34:803,4.38,0.90,-1.75,3.41,-0.88,1.67,
17:58:34:807,4.38,0.90,-1.75,3.86,-0.69,1.87,
17:58:34:808,3.51,1.60,-3.91,3.86,-0.69,1.87,
17:58:34:811,3.51,1.60,-3.91,4.22,-0.49,2.14,
17:58:34:812,3.04,2.37,-4.93,4.22,-0.49,2.14,
17:58:34:817,3.48,1.89,-6.35,4.22,-0.49,2.14,
17:58:34:818,3.48,1.89,-6.35,4.47,-0.39,2.47,
17:58:34:821,4.57,-0.58,-8.13,4.47,-0.39,2.47,
17:58:34:822,4.57,-0.58,-8.13,4.59,-0.37,2.78,
17:58:34:826,4.57,-0.58,-8.13,4.61,-0.39,3.00,
17:58:34:827,6.45,-4.10,-9.28,4.61,-0.39,3.00,
17:58:34:831,6.45,-4.10,-9.28,4.57,-0.45,3.05,
17:58:34:832,8.26,-7.39,-9.62,4.57,-0.45,3.05,
17:58:34:836,8.26,-7.39,-9.62,4.49,-0.67,2.93,
17:58:34:837,9.80,-9.83,-9.00,4.49,-0.67,2.93,
17:58:34:841,9.80,-9.83,-9.00,4.43,-0.96,2.65,
17:58:34:842,10.73,-11.27,-10.13,4.43,-0.96,2.65,
17:58:34:904,11.56,-12.19,-11.09,4.43,-0.96,2.65,
17:58:34:905,11.56,-12.19,-11.09,4.38,-1.20,2.28,
17:58:34:905,11.56,-12.19,-11.09,4.32,-1.38,1.84,
17:58:34:906,12.53,-12.80,-11.88,4.32,-1.38,1.84,
17:58:34:907,12.53,-12.80,-11.88,4.27,-1.53,1.38,
17:58:34:908,13.72,-13.15,-12.86,4.27,-1.53,1.38,
17:58:34:908,13.72,-13.15,-12.86,4.19,-1.62,0.88,
17:58:34:909,14.81,-13.45,-13.92,4.19,-1.62,0.88,
17:58:34:910,14.81,-13.45,-13.92,4.10,-1.58,0.34,
17:58:34:910,15.89,-13.68,-15.09,4.10,-1.58,0.34,
17:58:34:911,15.89,-13.68,-15.09,3.97,-1.46,-0.24,
17:58:34:911,16.73,-13.74,-15.84,3.97,-1.46,-0.24,
17:58:34:912,16.73,-13.74,-15.84,3.83,-1.31,-0.86,
17:58:34:913,16.63,-13.33,-15.84,3.83,-1.31,-0.86,
17:58:34:913,16.63,-13.33,-15.84,3.71,-1.18,-1.46,
17:58:34:914,15.37,-12.75,-15.78,3.71,-1.18,-1.46,
17:58:34:915,15.37,-12.75,-15.78,3.63,-1.02,-2.01,
17:58:34:916,13.08,-11.72,-15.55,3.63,-1.02,-2.01,
17:58:34:917,13.08,-11.72,-15.55,3.60,-0.83,-2.45,
17:58:34:918,10.64,-10.70,-14.86,3.60,-0.83,-2.45,
17:58:34:918,8.36,-9.98,-14.22,3.60,-0.83,-2.45,
17:58:34:919,8.36,-9.98,-14.22,3.56,-0.69,-2.75,
17:58:34:919,6.38,-9.18,-13.39,3.56,-0.69,-2.75,
17:58:34:920,6.38,-9.18,-13.39,3.52,-0.58,-2.94,
17:58:34:921,6.38,-9.18,-13.39,3.44,-0.49,-3.02,
17:58:34:922,4.90,-8.22,-12.55,3.44,-0.49,-3.02,
17:58:34:923,4.17,-7.58,-11.88,3.44,-0.49,-3.02,
17:58:34:924,4.17,-7.58,-11.88,3.32,-0.51,-3.04,
17:58:34:924,4.17,-7.58,-11.88,3.15,-0.61,-3.06,
17:58:34:925,4.05,-7.32,-11.25,3.15,-0.61,-3.06,
17:58:34:925,4.05,-7.32,-11.25,2.93,-0.78,-3.12,
17:58:34:926,4.07,-7.06,-11.03,2.93,-0.78,-3.12,
17:58:34:927,3.75,-6.16,-11.68,2.93,-0.78,-3.12,
17:58:34:927,3.75,-6.16,-11.68,2.61,-0.97,-3.20,
17:58:34:928,3.75,-6.16,-11.68,2.15,-1.16,-3.30,
17:58:34:928,3.02,-4.56,-12.68,2.15,-1.16,-3.30,
17:58:34:934,3.02,-4.56,-12.68,1.55,-1.36,-3.36,
17:58:34:935,2.26,-2.72,-12.87,1.55,-1.36,-3.36,
17:58:34:937,2.26,-2.72,-12.87,0.85,-1.61,-3.40,
17:58:34:938,1.78,-1.16,-12.42,0.85,-1.61,-3.40,
17:58:34:942,1.78,-1.16,-12.42,0.08,-1.90,-3.43,
17:58:34:943,1.61,-0.48,-11.88,0.08,-1.90,-3.43,
17:58:34:947,1.61,-0.48,-11.88,-0.71,-2.13,-3.50,
17:58:34:948,2.06,-0.18,-10.41,-0.71,-2.13,-3.50,
17:58:34:952,2.06,-0.18,-10.41,-1.46,-2.30,-3.63,
17:58:34:952,2.85,1.23,-7.91,-1.46,-2.30,-3.63,
17:58:34:957,2.85,1.23,-7.91,-2.10,-2.38,-3.82,
17:58:34:957,3.07,3.46,-5.57,-2.10,-2.38,-3.82,
17:58:34:962,3.07,3.46,-5.57,-2.59,-2.24,-4.04,
17:58:34:963,2.45,6.26,-2.97,-2.59,-2.24,-4.04,
17:58:34:967,2.45,6.26,-2.97,-2.93,-1.77,-4.25,
17:58:34:967,0.83,9.21,-0.07,-2.93,-1.77,-4.25,
17:58:34:971,0.83,9.21,-0.07,-3.09,-0.97,-4.37,
17:58:34:972,-1.88,11.82,2.97,-3.09,-0.97,-4.37,
17:58:34:976,-1.88,11.82,2.97,-3.09,0.11,-4.39,
17:58:34:977,-4.77,13.25,6.96,-3.09,0.11,-4.39,
17:58:34:981,-4.77,13.25,6.96,-2.92,1.26,-4.31,
17:58:34:982,-7.35,12.89,11.80,-2.92,1.26,-4.31,
17:58:34:986,-7.35,12.89,11.80,-2.62,2.29,-4.14,
17:58:34:986,-9.97,11.18,16.61,-2.62,2.29,-4.14,
17:58:34:991,-12.23,8.98,21.37,-2.62,2.29,-4.14,
17:58:34:991,-12.23,8.98,21.37,-2.21,3.07,-3.89,
17:58:34:997,-12.23,8.98,21.37,-1.70,3.57,-3.58,
17:58:34:998,-13.93,7.13,26.11,-1.70,3.57,-3.58,
17:58:35:000,-13.93,7.13,26.11,-1.09,3.80,-3.23,
17:58:35:001,-15.17,5.95,30.68,-1.09,3.80,-3.23,
17:58:35:005,-15.17,5.95,30.68,-0.35,3.80,-2.88,
17:58:35:006,-15.60,5.33,30.72,-0.35,3.80,-2.88,
17:58:35:010,-15.60,5.33,30.72,0.51,3.61,-2.56,
17:58:35:011,-15.18,4.70,30.74,0.51,3.61,-2.56,
17:58:35:015,-14.33,4.04,30.78,0.51,3.61,-2.56,
17:58:35:016,-14.33,4.04,30.78,1.49,3.26,-2.29,
17:58:35:020,-14.33,4.04,30.78,2.58,2.80,-2.08,
17:58:35:021,-13.41,3.52,30.83,2.58,2.80,-2.08,
17:58:35:025,-13.41,3.52,30.83,3.74,2.26,-1.91,
17:58:35:026,-12.30,2.68,30.90,3.74,2.26,-1.91,
17:58:35:030,-12.30,2.68,30.90,4.93,1.67,-1.76,
17:58:35:030,-11.31,1.63,30.99,4.93,1.67,-1.76,
17:58:35:034,-10.30,0.43,27.24,4.93,1.67,-1.76,
17:58:35:035,-10.30,0.43,27.24,6.10,1.11,-1.60,
17:58:35:040,-8.64,-1.19,21.07,6.10,1.11,-1.60,
17:58:35:041,-8.64,-1.19,21.07,7.18,0.70,-1.45,
17:58:35:044,-8.64,-1.19,21.07,8.08,0.51,-1.31,
17:58:35:044,-6.66,-2.98,14.46,8.08,0.51,-1.31,
17:58:35:050,-6.66,-2.98,14.46,8.76,0.50,-1.20,
17:58:35:051,-4.60,-4.63,8.04,8.76,0.50,-1.20,
17:58:35:055,-2.44,-6.15,1.81,8.76,0.50,-1.20,
17:58:35:055,-2.44,-6.15,1.81,9.21,0.67,-1.10,
17:58:35:058,-2.44,-6.15,1.81,9.40,1.02,-1.03,
17:58:35:059,0.06,-7.62,-4.09,9.40,1.02,-1.03,
17:58:35:064,2.86,-8.96,-8.76,9.40,1.02,-1.03,
17:58:35:064,2.86,-8.96,-8.76,9.37,1.52,-1.02,
17:58:35:071,5.54,-9.88,-12.37,9.37,1.52,-1.02,
17:58:35:072,5.54,-9.88,-12.37,9.17,2.07,-1.09,
17:58:35:073,5.54,-9.88,-12.37,8.82,2.63,-1.25,
17:58:35:074,7.63,-10.29,-14.55,8.82,2.63,-1.25,
17:58:35:078,8.85,-10.43,-15.46,8.82,2.63,-1.25,
17:58:35:079,8.85,-10.43,-15.46,8.41,3.13,-1.49,
17:58:35:084,8.85,-10.43,-15.46,7.97,3.57,-1.76,
17:58:35:085,9.11,-10.37,-15.62,7.97,3.57,-1.76,
17:58:35:121,9.11,-10.37,-15.62,7.50,3.97,-2.06,
17:58:35:122,8.68,-10.20,-14.90,7.50,3.97,-2.06,
17:58:35:123,8.68,-10.20,-14.90,7.04,4.27,-2.34,
17:58:35:123,7.64,-10.00,-13.59,7.04,4.27,-2.34,
17:58:35:124,7.64,-10.00,-13.59,6.60,4.47,-2.57,
17:58:35:124,6.31,-9.84,-11.92,6.60,4.47,-2.57,
17:58:35:125,6.31,-9.84,-11.92,6.19,4.53,-2.75,
17:58:35:125,5.09,-9.78,-9.97,6.19,4.53,-2.75,
17:58:35:126,5.09,-9.78,-9.97,5.82,4.45,-2.88,
17:58:35:127,4.22,-9.96,-8.44,5.82,4.45,-2.88,
17:58:35:127,3.62,-10.18,-7.12,5.82,4.45,-2.88,
17:58:35:128,3.62,-10.18,-7.12,5.47,4.26,-2.99,
17:58:35:128,3.62,-10.18,-7.12,5.12,3.98,-3.09,
17:58:35:129,3.10,-10.36,-6.68,5.12,3.98,-3.09,
17:58:35:129,3.10,-10.36,-6.68,4.73,3.68,-3.19,
17:58:35:130,2.63,-10.40,-6.50,4.73,3.68,-3.19,
17:58:35:131,2.63,-10.40,-6.50,4.31,3.35,-3.28,
17:58:35:131,2.15,-10.32,-6.52,4.31,3.35,-3.28,
17:58:35:132,2.15,-10.32,-6.52,3.85,3.01,-3.33,
17:58:35:132,1.58,-10.22,-6.77,3.85,3.01,-3.33,
17:58:35:158,1.58,-10.22,-6.77,3.38,2.69,-3.35,
17:58:35:158,1.06,-10.07,-6.92,3.38,2.69,-3.35,
17:58:35:159,1.06,-10.07,-6.92,2.88,2.39,-3.34,
17:58:35:159,0.47,-10.05,-6.88,2.88,2.39,-3.34,
17:58:35:160,0.47,-10.05,-6.88,2.38,2.12,-3.30,
17:58:35:160,-0.01,-10.29,-7.10,2.38,2.12,-3.30,
17:58:35:161,-0.55,-10.58,-7.05,2.38,2.12,-3.30,
17:58:35:162,-0.55,-10.58,-7.05,1.87,1.90,-3.24,
17:58:35:169,-1.26,-10.76,-7.09,1.87,1.90,-3.24,
17:58:35:173,-1.26,-10.76,-7.09,1.36,1.70,-3.17,
17:58:35:174,-1.26,-10.76,-7.09,0.85,1.53,-3.07,
17:58:35:175,-2.11,-10.79,-6.77,0.85,1.53,-3.07,
17:58:35:176,-2.11,-10.79,-6.77,0.35,1.40,-2.94,
17:58:35:177,-3.14,-10.68,-6.52,0.35,1.40,-2.94,
17:58:35:178,-3.14,-10.68,-6.52,-0.13,1.29,-2.76,
17:58:35:178,-4.26,-10.50,-5.85,-0.13,1.29,-2.76,
17:58:35:178,-4.26,-10.50,-5.85,-0.55,1.20,-2.51,
17:58:35:181,-5.28,-10.44,-4.99,-0.55,1.20,-2.51,
17:58:35:182,-5.28,-10.44,-4.99,-0.89,1.12,-2.21,
17:58:35:185,-5.97,-10.56,-4.14,-0.89,1.12,-2.21,
17:58:35:188,-6.17,-11.03,-3.36,-0.89,1.12,-2.21,
17:58:35:190,-6.17,-11.03,-3.36,-1.15,1.10,-1.87,
17:58:35:190,-6.17,-11.03,-3.36,-1.33,1.12,-1.54,
17:58:35:192,-5.90,-11.67,-2.50,-1.33,1.12,-1.54,
17:58:35:194,-5.90,-11.67,-2.50,-1.44,1.17,-1.23,
17:58:35:195,-5.17,-12.39,-1.83,-1.44,1.17,-1.23,
17:58:35:200,-5.17,-12.39,-1.83,-1.51,1.24,-0.98,
17:58:35:200,-4.12,-13.11,-1.55,-1.51,1.24,-0.98,
17:58:35:204,-3.04,-13.76,-1.54,-1.51,1.24,-0.98,
17:58:35:205,-3.04,-13.76,-1.54,-1.56,1.35,-0.80,
17:58:35:209,-2.04,-14.37,-1.59,-1.56,1.35,-0.80,
17:58:35:210,-2.04,-14.37,-1.59,-1.59,1.50,-0.70,
17:58:35:214,-2.04,-14.37,-1.59,-1.62,1.71,-0.68,
17:58:35:215,-1.23,-14.95,-1.51,-1.62,1.71,-0.68,
17:58:35:218,-0.71,-15.33,-1.18,-1.62,1.71,-0.68,
17:58:35:219,-0.71,-15.33,-1.18,-1.65,1.97,-0.71,
17:58:35:224,-0.71,-15.33,-1.18,-1.67,2.23,-0.79,
17:58:35:225,-0.64,-15.44,-0.54,-1.67,2.23,-0.79,
17:58:35:228,-0.64,-15.44,-0.54,-1.67,2.47,-0.89,
17:58:35:229,-0.93,-15.46,0.21,-1.67,2.47,-0.89,
17:58:35:235,-1.55,-15.33,1.13,-1.67,2.47,-0.89,
17:58:35:236,-1.55,-15.33,1.13,-1.66,2.66,-1.00,
17:58:35:239,-2.35,-14.97,2.12,-1.66,2.66,-1.00,
17:58:35:239,-2.35,-14.97,2.12,-1.62,2.79,-1.09,
17:58:35:243,-3.20,-14.40,2.91,-1.62,2.79,-1.09,
17:58:35:244,-3.20,-14.40,2.91,-1.55,2.83,-1.15,
17:58:35:248,-4.28,-13.62,3.37,-1.55,2.83,-1.15,
17:58:35:248,-4.28,-13.62,3.37,-1.47,2.79,-1.17,
17:58:35:252,-4.28,-13.62,3.37,-1.38,2.68,-1.16,
17:58:35:253,-5.45,-12.63,3.35,-1.38,2.68,-1.16,
17:58:35:257,-5.45,-12.63,3.35,-1.31,2.50,-1.11,
17:58:35:258,-6.78,-11.40,2.86,-1.31,2.50,-1.11,
17:58:35:262,-6.78,-11.40,2.86,-1.28,2.27,-1.02,
17:58:35:263,-8.40,-9.84,1.84,-1.28,2.27,-1.02,
17:58:35:267,-9.94,-8.00,0.52,-1.28,2.27,-1.02,
17:58:35:268,-9.94,-8.00,0.52,-1.32,2.02,-0.90,
17:58:35:272,-9.94,-8.00,0.52,-1.43,1.77,-0.74,
17:58:35:272,-11.33,-6.14,-0.90,-1.43,1.77,-0.74,
17:58:35:276,-11.33,-6.14,-0.90,-1.61,1.55,-0.56,
17:58:35:277,-12.28,-4.49,-2.65,-1.61,1.55,-0.56,
17:58:35:281,-12.74,-2.71,-4.78,-1.61,1.55,-0.56,
17:58:35:282,-12.74,-2.71,-4.78,-1.90,1.42,-0.40,
17:58:35:286,-12.74,-2.71,-4.78,-2.34,1.43,-0.32,
17:58:35:287,-13.09,-0.23,-6.83,-2.34,1.43,-0.32,
17:58:35:291,-13.71,2.87,-7.95,-2.34,1.43,-0.32,
17:58:35:292,-13.71,2.87,-7.95,-2.96,1.57,-0.32,
17:58:35:296,-13.71,2.87,-7.95,-3.71,1.81,-0.43,
17:58:35:297,-14.82,6.46,-7.36,-3.71,1.81,-0.43,
17:58:35:301,-14.82,6.46,-7.36,-4.47,2.10,-0.59,
17:58:35:301,-16.51,10.66,-5.19,-4.47,2.10,-0.59,
17:58:35:306,-16.51,10.66,-5.19,-5.21,2.40,-0.78,
17:58:35:306,-18.87,15.30,-1.85,-5.21,2.40,-0.78,
17:58:35:310,-18.87,15.30,-1.85,-5.87,2.67,-0.93,
17:58:35:311,-23.07,19.70,2.56,-5.87,2.67,-0.93,
17:58:35:315,-23.07,19.70,2.56,-6.41,2.89,-0.96,
17:58:35:316,-26.82,23.13,6.72,-6.41,2.89,-0.96,
17:58:35:320,-26.82,23.13,6.72,-6.83,3.02,-0.93,
17:58:35:320,-30.65,25.66,12.10,-6.83,3.02,-0.93,
17:58:35:325,-30.65,25.66,12.10,-7.07,2.92,-0.82,
17:58:35:325,-30.62,27.43,18.14,-7.07,2.92,-0.82,
17:58:35:369,-30.62,27.43,18.14,-7.11,2.51,-0.60,
17:58:35:370,-30.56,28.57,23.66,-7.11,2.51,-0.60,
17:58:35:371,-30.56,28.57,23.66,-6.91,1.89,-0.19,
17:58:35:372,-30.51,29.12,28.12,-6.91,1.89,-0.19,
17:58:35:373,-30.51,29.12,28.12,-6.48,1.14,0.40,
17:58:35:374,-30.48,28.77,31.00,-6.48,1.14,0.40,
17:58:35:375,-30.48,28.77,31.00,-5.87,0.29,1.04,
17:58:35:377,-30.48,28.77,31.00,-5.11,-0.56,1.59,
17:58:35:378,-30.24,26.63,31.85,-5.11,-0.56,1.59,
17:58:35:380,-23.59,22.82,30.67,-5.11,-0.56,1.59,
17:58:35:381,-23.59,22.82,30.67,-4.27,-1.22,2.00,
17:58:35:382,-17.42,18.60,28.47,-4.27,-1.22,2.00,
17:58:35:383,-17.42,18.60,28.47,-3.37,-1.62,2.29,
17:58:35:384,-11.59,15.22,25.53,-3.37,-1.62,2.29,
17:58:35:385,-11.59,15.22,25.53,-2.43,-1.78,2.46,
17:58:35:385,-6.40,12.65,22.40,-2.43,-1.78,2.46,
17:58:35:386,-2.26,10.54,18.89,-2.43,-1.78,2.46,
17:58:35:386,-2.26,10.54,18.89,-1.48,-1.74,2.49,
17:58:35:387,-2.26,10.54,18.89,-0.55,-1.52,2.43,
