
time,ax,ay,az,wx,wy,wz,
17:25:23:145,-0.24,-0.09,-3.25,0.67,0.08,-0.08,
17:25:23:145,-0.24,-0.09,-3.25,0.46,0.10,-0.07,
17:25:23:146,-0.71,0.22,-3.38,0.46,0.10,-0.07,
17:25:23:146,-0.71,0.22,-3.38,0.23,0.09,-0.04,
17:25:23:146,-0.99,0.22,-3.39,0.23,0.09,-0.04,
17:25:23:147,-0.99,0.22,-3.39,0.01,0.06,0.02,
17:25:23:147,-1.14,0.04,-3.38,0.01,0.06,0.02,
17:25:23:147,-1.14,0.04,-3.38,-0.20,0.03,0.08,
17:25:23:163,-1.18,-0.19,-3.18,-0.20,0.03,0.08,
17:25:23:164,-1.18,-0.19,-3.18,-0.40,0.01,0.15,
17:25:23:164,-1.22,-0.34,-2.85,-0.40,0.01,0.15,
17:25:23:165,-1.22,-0.34,-2.85,-0.59,0.00,0.22,
17:25:23:165,-1.56,-0.57,-2.74,-0.59,0.00,0.22,
17:25:23:166,-1.56,-0.57,-2.74,-0.77,0.02,0.29,
17:25:23:166,-2.03,-0.70,-2.71,-0.77,0.02,0.29,
17:25:23:166,-2.03,-0.70,-2.71,-0.94,0.06,0.38,
17:25:23:171,-2.03,-0.70,-2.71,-1.12,0.14,0.48,
17:25:23:172,-2.54,-0.74,-2.78,-1.12,0.14,0.48,
17:25:23:179,-2.98,-0.67,-2.87,-1.12,0.14,0.48,
17:25:23:180,-2.98,-0.67,-2.87,-1.30,0.24,0.61,
17:25:23:181,-2.98,-0.67,-2.87,-1.48,0.36,0.77,
17:25:23:181,-3.33,-0.61,-2.81,-1.48,0.36,0.77,
17:25:23:185,-3.33,-0.61,-2.81,-1.66,0.46,0.94,
17:25:23:186,-3.46,-0.64,-2.66,-1.66,0.46,0.94,
17:25:23:190,-3.46,-0.64,-2.66,-1.83,0.54,1.12,
17:25:23:191,-3.38,-0.71,-2.48,-1.83,0.54,1.12,
17:25:23:199,-3.38,-0.71,-2.48,-1.99,0.61,1.29,
17:25:23:200,-3.01,-0.88,-2.25,-1.99,0.61,1.29,
17:25:23:201,-3.01,-0.88,-2.25,-2.14,0.64,1.45,
17:25:23:201,-2.57,-1.07,-2.06,-2.14,0.64,1.45,
17:25:23:205,-2.57,-1.07,-2.06,-2.28,0.66,1.59,
17:25:23:206,-2.02,-1.29,-1.87,-2.28,0.66,1.59,
17:25:23:216,-1.61,-1.50,-1.90,-2.28,0.66,1.59,
17:25:23:217,-1.61,-1.50,-1.90,-2.41,0.67,1.72,
17:25:23:217,-1.52,-1.78,-1.95,-2.41,0.67,1.72,
17:25:23:218,-1.52,-1.78,-1.95,-2.53,0.68,1.83,
17:25:23:218,-1.52,-1.78,-1.95,-2.64,0.71,1.93,
17:25:23:219,-1.47,-1.86,-1.46,-2.64,0.71,1.93,
17:25:23:225,-1.47,-1.86,-1.46,-2.73,0.68,2.01,
17:25:23:225,-1.47,-1.70,-0.90,-2.73,0.68,2.01,
17:25:23:228,-1.47,-1.70,-0.90,-2.80,0.60,2.09,
17:25:23:229,-1.50,-1.49,-0.15,-2.80,0.60,2.09,
17:25:23:234,-1.59,-1.37,0.31,-2.80,0.60,2.09,
17:25:23:234,-1.59,-1.37,0.31,-2.85,0.48,2.16,
17:25:23:238,-1.47,-1.27,1.07,-2.85,0.48,2.16,
17:25:23:239,-1.47,-1.27,1.07,-2.89,0.35,2.22,
17:25:23:243,-1.47,-1.27,1.07,-2.89,0.23,2.28,
17:25:23:244,-1.19,-1.21,1.90,-2.89,0.23,2.28,
17:25:23:248,-1.19,-1.21,1.90,-2.86,0.11,2.32,
17:25:23:248,-1.08,-1.31,2.20,-2.86,0.11,2.32,
17:25:23:252,-1.07,-1.35,2.55,-2.86,0.11,2.32,
17:25:23:253,-1.07,-1.35,2.55,-2.80,0.01,2.34,
17:25:23:258,-0.86,-1.26,2.74,-2.80,0.01,2.34,
17:25:23:260,-0.86,-1.26,2.74,-2.71,-0.07,2.35,
17:25:23:262,-0.41,-0.97,3.13,-2.71,-0.07,2.35,
17:25:23:263,-0.41,-0.97,3.13,-2.58,-0.13,2.34,
17:25:23:267,-0.13,-0.93,3.51,-2.58,-0.13,2.34,
17:25:23:268,-0.13,-0.93,3.51,-2.43,-0.17,2.32,
17:25:23:271,-0.13,-0.93,3.51,-2.25,-0.23,2.27,
17:25:23:272,0.23,-1.01,4.91,-2.25,-0.23,2.27,
17:25:23:284,0.18,-0.82,4.11,-2.25,-0.23,2.27,
17:25:23:285,0.18,-0.82,4.11,-2.02,-0.38,2.20,
17:25:23:285,0.15,-0.51,2.26,-2.02,-0.38,2.20,
17:25:23:286,0.15,-0.51,2.26,-1.81,-0.55,2.13,
17:25:23:286,0.48,-0.35,1.66,-1.81,-0.55,2.13,
17:25:23:286,0.48,-0.35,1.66,-1.63,-0.64,2.06,
17:25:23:291,0.91,-0.37,0.88,-1.63,-0.64,2.06,
17:25:23:292,0.91,-0.37,0.88,-1.46,-0.67,1.98,
17:25:23:297,1.15,-0.39,-0.40,-1.46,-0.67,1.98,
17:25:23:298,1.15,-0.39,-0.40,-1.31,-0.62,1.87,
17:25:23:302,1.15,-0.39,-0.40,-1.19,-0.48,1.76,
17:25:23:303,1.31,-0.45,-0.93,-1.19,-0.48,1.76,
17:25:23:322,1.31,-0.45,-0.93,-1.10,-0.32,1.64,
17:25:23:323,1.55,-0.56,-0.35,-1.10,-0.32,1.64,
17:25:23:323,1.78,-0.71,0.43,-1.10,-0.32,1.64,
17:25:23:324,1.78,-0.71,0.43,-1.01,-0.26,1.51,
17:25:23:324,1.78,-0.71,0.43,-0.92,-0.28,1.37,
17:25:23:324,1.88,-0.87,0.88,-0.92,-0.28,1.37,
17:25:23:324,1.88,-0.87,0.88,-0.83,-0.32,1.23,
17:25:23:325,1.87,-0.92,1.04,-0.83,-0.32,1.23,
17:25:23:332,1.87,-0.92,1.04,-0.74,-0.33,1.10,
17:25:23:333,1.82,-0.90,1.14,-0.74,-0.33,1.10,
17:25:23:334,1.68,-0.75,1.35,-0.74,-0.33,1.10,
17:25:23:334,1.68,-0.75,1.35,-0.64,-0.27,0.99,
17:25:23:336,1.41,-0.44,1.74,-0.64,-0.27,0.99,
17:25:23:337,1.41,-0.44,1.74,-0.52,-0.16,0.89,
17:25:23:342,1.41,-0.44,1.74,-0.40,-0.05,0.82,
17:25:23:343,0.97,-0.12,1.79,-0.40,-0.05,0.82,
17:25:23:345,0.97,-0.12,1.79,-0.29,0.02,0.78,
17:25:23:346,0.50,0.10,1.43,-0.29,0.02,0.78,
17:25:23:351,0.15,0.19,1.06,-0.29,0.02,0.78,
17:25:23:351,0.15,0.19,1.06,-0.20,0.07,0.77,
17:25:23:355,0.04,0.24,0.85,-0.20,0.07,0.77,
17:25:23:356,0.04,0.24,0.85,-0.13,0.09,0.78,
17:25:23:360,0.04,0.22,0.66,-0.13,0.09,0.78,
17:25:23:361,0.04,0.22,0.66,-0.09,0.08,0.80,
17:25:23:364,0.04,0.22,0.66,-0.06,0.05,0.83,
17:25:23:365,0.12,0.18,0.43,-0.06,0.05,0.83,
17:25:23:369,0.12,0.18,0.43,-0.04,0.02,0.85,
17:25:23:370,0.24,0.18,0.22,-0.04,0.02,0.85,
17:25:23:384,0.24,0.18,0.22,-0.03,0.02,0.87,
17:25:23:385,0.37,0.21,0.16,-0.03,0.02,0.87,
17:25:23:386,0.62,0.23,0.11,-0.03,0.02,0.87,
17:25:23:386,0.62,0.23,0.11,-0.03,0.02,0.89,
17:25:23:386,0.98,0.14,0.05,-0.03,0.02,0.89,
17:25:23:386,0.98,0.14,0.05,-0.03,0.03,0.89,
17:25:23:388,1.07,-0.05,-0.12,-0.03,0.03,0.89,
17:25:23:388,1.07,-0.05,-0.12,-0.04,0.08,0.88,
17:25:23:394,1.07,-0.05,-0.12,-0.05,0.17,0.85,
17:25:23:395,1.20,0.00,-0.28,-0.05,0.17,0.85,
17:25:23:399,1.23,0.12,-0.34,-0.05,0.17,0.85,
17:25:23:400,1.23,0.12,-0.34,-0.06,0.24,0.83,
17:25:23:403,1.30,0.14,-0.23,-0.06,0.24,0.83,
17:25:23:403,1.30,0.14,-0.23,-0.08,0.27,0.81,
17:25:23:421,1.30,0.14,-0.23,-0.10,0.26,0.80,
17:25:23:421,1.21,0.10,0.04,-0.10,0.26,0.80,
17:25:23:446,1.04,-0.03,0.21,-0.10,0.26,0.80,
17:25:23:447,1.04,-0.03,0.21,-0.12,0.21,0.79,
17:25:23:447,1.04,-0.03,0.21,-0.15,0.13,0.79,
17:25:23:448,0.77,-0.14,0.07,-0.15,0.13,0.79,
17:25:23:448,0.49,-0.07,-0.11,-0.15,0.13,0.79,
17:25:23:449,0.49,-0.07,-0.11,-0.17,0.08,0.79,
17:25:23:449,0.02,-0.13,-0.34,-0.17,0.08,0.79,
17:25:23:450,0.02,-0.13,-0.34,-0.19,0.05,0.78,
17:25:23:451,-0.41,-0.14,-0.63,-0.19,0.05,0.78,
17:25:23:452,-0.41,-0.14,-0.63,-0.22,0.04,0.78,
17:25:23:453,-0.59,-0.09,-0.48,-0.22,0.04,0.78,
17:25:23:453,-0.59,-0.09,-0.48,-0.25,0.05,0.79,
17:25:23:454,-0.73,0.01,-0.01,-0.25,0.05,0.79,
17:25:23:454,-0.73,0.01,-0.01,-0.26,0.04,0.81,
17:25:23:454,-0.73,0.07,0.31,-0.26,0.04,0.81,
17:25:23:454,-0.73,0.07,0.31,-0.25,0.00,0.84,
17:25:23:455,-0.72,0.10,0.53,-0.25,0.00,0.84,
17:25:23:455,-0.72,0.10,0.53,-0.23,-0.05,0.87,
17:25:23:458,-0.58,0.08,0.60,-0.23,-0.05,0.87,
17:25:23:458,-0.58,0.08,0.60,-0.20,-0.09,0.90,
17:25:23:461,-0.46,0.02,0.51,-0.20,-0.09,0.90,
17:25:23:462,-0.46,0.02,0.51,-0.15,-0.11,0.93,
17:25:23:467,-0.16,-0.08,0.50,-0.15,-0.11,0.93,
17:25:23:468,-0.16,-0.08,0.50,-0.09,-0.10,0.95,
17:25:23:472,0.28,-0.09,0.47,-0.09,-0.10,0.95,
17:25:23:472,0.28,-0.09,0.47,-0.03,-0.07,0.95,
17:25:23:484,0.65,-0.03,0.45,-0.03,-0.07,0.95,
17:25:23:485,0.65,-0.03,0.45,0.03,-0.02,0.94,
17:25:23:485,1.02,0.07,0.37,0.03,-0.02,0.94,
17:25:23:485,1.02,0.07,0.37,0.09,0.03,0.92,
17:25:23:485,1.35,0.26,0.08,0.09,0.03,0.92,
17:25:23:486,1.35,0.26,0.08,0.14,0.06,0.89,
17:25:23:491,1.35,0.26,0.08,0.18,0.09,0.86,
17:25:23:499,1.60,0.37,-0.04,0.18,0.09,0.86,
17:25:23:500,1.60,0.37,-0.04,0.22,0.12,0.82,
17:25:23:501,1.68,0.44,-0.25,0.22,0.12,0.82,
17:25:23:501,1.76,0.46,-0.28,0.22,0.12,0.82,
17:25:23:501,1.76,0.46,-0.28,0.24,0.16,0.79,
17:25:23:506,1.66,0.52,-0.25,0.24,0.16,0.79,
17:25:23:507,1.66,0.52,-0.25,0.26,0.17,0.76,
17:25:23:511,1.59,0.59,-0.14,0.26,0.17,0.76,
17:25:23:512,1.59,0.59,-0.14,0.28,0.16,0.73,
17:25:23:515,1.59,0.59,-0.14,0.29,0.15,0.70,
17:25:23:516,1.76,0.74,-0.05,0.29,0.15,0.70,
17:25:23:519,1.76,0.74,-0.05,0.31,0.16,0.63,
17:25:23:520,1.92,0.74,-0.13,0.31,0.16,0.63,
17:25:23:524,1.87,0.62,-0.27,0.31,0.16,0.63,
17:25:23:525,1.87,0.62,-0.27,0.34,0.20,0.54,
17:25:23:529,1.87,0.62,-0.27,0.37,0.26,0.46,
17:25:23:529,1.78,0.62,0.01,0.37,0.26,0.46,
17:25:23:535,1.40,0.67,0.26,0.37,0.26,0.46,
17:25:23:536,1.40,0.67,0.26,0.42,0.30,0.39,
17:25:23:540,1.40,0.67,0.26,0.47,0.32,0.33,
17:25:23:540,0.88,0.60,0.71,0.47,0.32,0.33,
17:25:23:545,0.26,0.54,1.12,0.47,0.32,0.33,
17:25:23:546,0.26,0.54,1.12,0.51,0.28,0.27,
17:25:23:550,0.26,0.54,1.12,0.55,0.21,0.24,
17:25:23:550,-0.37,0.53,1.29,0.55,0.21,0.24,
17:25:23:557,-0.37,0.53,1.29,0.56,0.12,0.23,
17:25:23:557,-0.96,0.56,1.06,0.56,0.12,0.23,
17:25:23:560,-0.96,0.56,1.06,0.56,0.06,0.25,
17:25:23:561,-1.03,0.68,0.34,0.56,0.06,0.25,
17:25:23:564,-1.03,0.68,0.34,0.53,0.07,0.26,
17:25:23:564,-1.18,0.72,-0.53,0.53,0.07,0.26,
17:25:23:568,-1.18,0.72,-0.53,0.45,0.13,0.31,
17:25:23:569,-1.19,0.89,-1.33,0.45,0.13,0.31,
17:25:23:574,-0.91,1.00,-1.47,0.45,0.13,0.31,
17:25:23:576,-0.91,1.00,-1.47,0.33,0.20,0.38,
17:25:23:579,-0.43,0.98,-1.64,0.33,0.20,0.38,
17:25:23:579,-0.43,0.98,-1.64,0.22,0.25,0.45,
17:25:23:583,0.12,0.92,-1.60,0.22,0.25,0.45,
17:25:23:584,0.12,0.92,-1.60,0.09,0.27,0.50,
17:25:23:588,0.35,0.97,-1.54,0.09,0.27,0.50,
17:25:23:588,0.35,0.97,-1.54,-0.03,0.28,0.52,
17:25:23:594,0.19,1.10,-1.38,-0.03,0.28,0.52,
17:25:23:595,0.19,1.10,-1.38,-0.14,0.32,0.53,
17:25:23:603,0.19,1.10,-1.38,-0.22,0.37,0.54,
17:25:23:605,-0.23,1.24,-1.18,-0.22,0.37,0.54,
17:25:23:605,-0.58,1.33,-0.93,-0.22,0.37,0.54,
17:25:23:606,-0.58,1.33,-0.93,-0.27,0.43,0.57,
17:25:23:617,-0.90,1.36,-0.74,-0.27,0.43,0.57,
17:25:23:618,-0.90,1.36,-0.74,-0.29,0.49,0.62,
17:25:23:619,-1.11,1.37,-0.56,-0.29,0.49,0.62,
17:25:23:619,-1.11,1.37,-0.56,-0.28,0.54,0.68,
17:25:23:620,-1.11,1.37,-0.56,-0.26,0.59,0.75,
17:25:23:621,-1.33,1.37,-0.46,-0.26,0.59,0.75,
17:25:23:649,-1.58,1.33,-0.36,-0.26,0.59,0.75,
17:25:23:650,-1.58,1.33,-0.36,-0.24,0.63,0.82,
17:25:23:651,-1.58,1.33,-0.36,-0.21,0.66,0.89,
17:25:23:651,-1.71,1.29,-0.14,-0.21,0.66,0.89,
17:25:23:651,-1.77,1.31,0.05,-0.21,0.66,0.89,
17:25:23:652,-1.77,1.31,0.05,-0.17,0.69,0.96,
17:25:23:652,-1.77,1.31,0.05,-0.12,0.71,1.03,
17:25:23:652,-1.74,1.25,0.32,-0.12,0.71,1.03,
17:25:23:652,-1.74,1.25,0.32,-0.06,0.72,1.09,
17:25:23:653,-1.75,1.16,0.49,-0.06,0.72,1.09,
17:25:23:653,-1.74,1.10,0.55,-0.06,0.72,1.09,
17:25:23:653,-1.74,1.10,0.55,0.00,0.72,1.15,
17:25:23:654,-1.50,0.90,0.77,0.00,0.72,1.15,
17:25:23:654,-1.50,0.90,0.77,0.07,0.71,1.20,
17:25:23:677,-1.17,0.66,0.69,0.07,0.71,1.20,
17:25:23:678,-1.17,0.66,0.69,0.14,0.69,1.24,
17:25:23:679,-1.17,0.66,0.69,0.20,0.67,1.27,
17:25:23:679,-0.90,0.49,0.52,0.20,0.67,1.27,
17:25:23:679,-0.90,0.49,0.52,0.27,0.68,1.30,
17:25:23:680,-0.58,0.24,0.26,0.27,0.68,1.30,
17:25:23:680,-0.28,-0.03,0.01,0.27,0.68,1.30,
17:25:23:681,-0.28,-0.03,0.01,0.32,0.69,1.33,
17:25:23:681,-0.28,-0.03,0.01,0.34,0.70,1.34,
17:25:23:681,-0.10,-0.26,-0.29,0.34,0.70,1.34,
17:25:23:682,0.02,-0.52,-0.71,0.34,0.70,1.34,
17:25:23:682,0.02,-0.52,-0.71,0.34,0.74,1.34,
17:25:23:684,0.02,-0.52,-0.71,0.31,0.81,1.34,
17:25:23:685,0.13,-0.78,-0.98,0.31,0.81,1.34,
17:25:23:689,0.24,-1.06,-0.87,0.31,0.81,1.34,
17:25:23:689,0.24,-1.06,-0.87,0.23,0.85,1.33,
17:25:23:694,0.23,-1.13,-0.98,0.23,0.85,1.33,
17:25:23:694,0.23,-1.13,-0.98,0.14,0.88,1.31,
17:25:23:699,0.28,-1.18,-0.82,0.14,0.88,1.31,
17:25:23:699,0.28,-1.18,-0.82,0.08,0.97,1.28,
17:25:23:705,0.31,-1.16,-1.00,0.08,0.97,1.28,
17:25:23:705,0.31,-1.16,-1.00,0.05,1.09,1.25,
17:25:23:716,0.31,-1.16,-1.00,0.02,1.18,1.23,
17:25:23:716,0.43,-1.20,-0.91,0.02,1.18,1.23,
17:25:23:717,0.43,-1.20,-0.91,-0.03,1.19,1.21,
17:25:23:717,0.30,-1.09,-0.72,-0.03,1.19,1.21,
17:25:23:718,0.30,-1.09,-0.72,-0.09,1.19,1.20,
17:25:23:718,0.19,-1.11,-0.36,-0.09,1.19,1.20,
17:25:23:735,0.19,-1.11,-0.36,-0.18,1.16,1.19,
17:25:23:736,0.06,-1.18,-0.16,-0.18,1.16,1.19,
17:25:23:736,0.06,-1.18,-0.16,-0.29,1.09,1.17,
17:25:23:737,0.04,-1.27,-0.05,-0.29,1.09,1.17,
17:25:23:737,0.04,-1.27,-0.05,-0.41,1.06,1.15,
17:25:23:737,-0.02,-1.37,0.16,-0.41,1.06,1.15,
17:25:23:738,-0.02,-1.37,0.16,-0.53,0.98,1.12,
17:25:23:738,-0.02,-1.55,0.52,-0.53,0.98,1.12,
17:25:23:743,0.08,-1.76,1.11,-0.53,0.98,1.12,
17:25:23:744,0.08,-1.76,1.11,-0.63,0.87,1.08,
17:25:23:747,0.18,-1.93,1.58,-0.63,0.87,1.08,
17:25:23:748,0.18,-1.93,1.58,-0.69,0.75,1.03,
17:25:23:753,0.18,-1.93,1.58,-0.70,0.61,0.97,
17:25:23:753,0.22,-1.98,1.90,-0.70,0.61,0.97,
17:25:23:757,0.22,-1.98,1.90,-0.67,0.49,0.90,
17:25:23:759,0.36,-2.03,2.16,-0.67,0.49,0.90,
17:25:23:763,0.47,-1.96,2.05,-0.67,0.49,0.90,
17:25:23:764,0.47,-1.96,2.05,-0.61,0.37,0.83,
17:25:23:767,0.47,-1.96,2.05,-0.53,0.30,0.76,
17:25:23:767,0.62,-1.99,2.00,-0.53,0.30,0.76,
17:25:23:771,0.62,-1.99,2.00,-0.43,0.23,0.69,
17:25:23:773,0.72,-2.04,1.99,-0.43,0.23,0.69,
17:25:23:777,0.72,-2.04,1.99,-0.33,0.18,0.63,
17:25:23:778,0.93,-2.12,2.02,-0.33,0.18,0.63,
17:25:23:782,0.93,-2.12,2.02,-0.24,0.15,0.56,
17:25:23:783,1.09,-2.22,1.91,-0.24,0.15,0.56,
17:25:23:786,1.00,-2.10,1.68,-0.24,0.15,0.56,
17:25:23:786,1.00,-2.10,1.68,-0.17,0.14,0.49,
17:25:23:791,1.00,-2.10,1.68,-0.09,0.14,0.44,
17:25:23:792,1.00,-1.97,2.05,-0.09,0.14,0.44,
17:25:23:796,1.04,-2.00,2.27,-0.09,0.14,0.44,
17:25:23:797,1.04,-2.00,2.27,-0.01,0.10,0.41,
17:25:23:801,0.97,-2.12,2.06,-0.01,0.10,0.41,
17:25:23:801,0.97,-2.12,2.06,0.08,0.05,0.37,
17:25:23:811,0.97,-2.12,2.06,0.17,0.05,0.32,
17:25:23:812,0.80,-2.11,1.42,0.17,0.05,0.32,
17:25:23:813,0.80,-2.11,1.42,0.24,0.11,0.26,
17:25:23:813,0.94,-2.10,0.91,0.24,0.11,0.26,
17:25:23:815,0.94,-2.10,0.91,0.28,0.15,0.20,
17:25:23:816,1.03,-1.83,0.45,0.28,0.15,0.20,
17:25:23:821,1.03,-1.83,0.45,0.29,0.20,0.14,
17:25:23:822,0.85,-1.35,0.21,0.29,0.20,0.14,
17:25:23:842,0.85,-1.35,0.21,0.30,0.24,0.11,
17:25:23:843,0.45,-0.76,0.01,0.30,0.24,0.11,
17:25:23:843,0.45,-0.76,0.01,0.30,0.29,0.12,
17:25:23:843,0.06,-0.34,-0.23,0.30,0.29,0.12,
17:25:23:844,0.06,-0.34,-0.23,0.28,0.33,0.15,
17:25:23:844,-0.19,-0.07,-0.39,0.28,0.33,0.15,
17:25:23:844,-0.19,-0.07,-0.39,0.26,0.38,0.20,
17:25:23:845,-0.24,0.05,-0.28,0.26,0.38,0.20,
17:25:23:845,-0.23,0.07,-0.07,0.26,0.38,0.20,
17:25:23:845,-0.23,0.07,-0.07,0.23,0.40,0.26,
17:25:23:851,-0.31,0.13,0.35,0.23,0.40,0.26,
17:25:23:851,-0.31,0.13,0.35,0.20,0.36,0.31,
17:25:23:856,-0.31,0.13,0.35,0.17,0.27,0.38,
17:25:23:856,-0.45,0.19,0.85,0.17,0.27,0.38,
17:25:23:861,-0.70,0.38,1.08,0.17,0.27,0.38,
17:25:23:862,-0.70,0.38,1.08,0.16,0.14,0.45,
17:25:23:865,-0.93,0.50,1.13,0.16,0.14,0.45,
17:25:23:866,-0.93,0.50,1.13,0.15,0.02,0.52,
17:25:23:868,-0.98,0.48,1.08,0.15,0.02,0.52,
17:25:23:869,-0.98,0.48,1.08,0.15,-0.10,0.59,
17:25:23:877,-0.56,0.29,0.75,0.15,-0.10,0.59,
17:25:23:877,-0.56,0.29,0.75,0.14,-0.22,0.65,
17:25:23:879,-0.56,0.29,0.75,0.12,-0.39,0.68,
17:25:23:879,-0.11,0.13,0.28,0.12,-0.39,0.68,
17:25:23:884,-0.11,0.13,0.28,0.09,-0.54,0.70,
17:25:23:884,0.11,0.04,-0.02,0.09,-0.54,0.70,
17:25:23:889,0.11,0.04,-0.02,0.07,-0.62,0.69,
17:25:23:889,0.15,-0.02,-0.31,0.07,-0.62,0.69,
17:25:23:894,0.15,-0.02,-0.31,0.04,-0.63,0.68,
17:25:23:895,0.07,-0.14,-0.48,0.04,-0.63,0.68,
17:25:23:921,0.07,-0.14,-0.48,0.02,-0.60,0.66,
17:25:23:921,0.07,-0.42,-0.61,0.02,-0.60,0.66,
17:25:23:922,0.07,-0.42,-0.61,-0.02,-0.54,0.64,
17:25:23:922,0.07,-0.53,-0.75,-0.02,-0.54,0.64,
17:25:23:922,0.07,-0.53,-0.75,-0.05,-0.45,0.61,
17:25:23:923,-0.04,-0.54,-0.77,-0.05,-0.45,0.61,
17:25:23:923,-0.04,-0.54,-0.77,-0.09,-0.33,0.58,
17:25:23:923,0.00,-0.50,-0.62,-0.09,-0.33,0.58,
17:25:23:924,0.26,-0.45,-0.62,-0.09,-0.33,0.58,
17:25:23:924,0.26,-0.45,-0.62,-0.13,-0.19,0.55,
17:25:23:924,0.26,-0.45,-0.62,-0.18,-0.09,0.50,
17:25:23:925,0.49,-0.47,-0.61,-0.18,-0.09,0.50,
17:25:23:928,0.67,-0.53,-0.51,-0.18,-0.09,0.50,
17:25:23:929,0.67,-0.53,-0.51,-0.25,0.01,0.45,
17:25:23:934,0.67,-0.53,-0.51,-0.30,0.14,0.38,
17:25:23:934,0.61,-0.51,-0.30,-0.30,0.14,0.38,
17:25:23:938,0.61,-0.51,-0.30,-0.33,0.28,0.33,
17:25:23:938,0.51,-0.47,-0.14,-0.33,0.28,0.33,
17:25:23:945,0.51,-0.47,-0.14,-0.36,0.41,0.28,
17:25:23:946,0.37,-0.53,-0.12,-0.36,0.41,0.28,
17:25:23:948,0.37,-0.53,-0.12,-0.37,0.54,0.23,
17:25:23:949,0.28,-0.65,-0.02,-0.37,0.54,0.23,
17:25:23:951,0.26,-0.81,0.04,-0.37,0.54,0.23,
17:25:23:952,0.26,-0.81,0.04,-0.37,0.65,0.18,
17:25:23:961,0.43,-1.00,0.16,-0.37,0.65,0.18,
17:25:23:962,0.43,-1.00,0.16,-0.35,0.75,0.14,
17:25:23:962,0.47,-0.99,0.40,-0.35,0.75,0.14,
17:25:23:962,0.47,-0.99,0.40,-0.33,0.82,0.10,
17:25:23:973,0.38,-0.77,0.79,-0.33,0.82,0.10,
17:25:23:974,0.34,-0.50,1.01,-0.33,0.82,0.10,
17:25:23:974,0.34,-0.50,1.01,-0.30,0.86,0.08,
17:25:23:975,0.34,-0.50,1.01,-0.24,0.85,0.09,
17:25:23:992,0.25,-0.20,1.14,-0.24,0.85,0.09,
17:25:23:993,0.25,-0.20,1.14,-0.17,0.84,0.12,
17:25:23:993,0.36,-0.11,1.25,-0.17,0.84,0.12,
17:25:23:994,0.36,-0.11,1.25,-0.10,0.79,0.16,
17:25:23:994,0.39,-0.04,1.25,-0.10,0.79,0.16,
17:25:23:994,0.39,-0.04,1.25,-0.04,0.70,0.19,
17:25:23:995,0.21,-0.01,1.09,-0.04,0.70,0.19,
17:25:23:995,0.21,-0.01,1.09,0.00,0.57,0.22,
17:25:23:995,0.02,0.14,0.90,0.00,0.57,0.22,
17:25:23:996,0.02,0.14,0.90,0.04,0.47,0.24,
17:25:24:000,0.02,0.14,0.90,0.06,0.40,0.27,
17:25:24:001,0.08,0.16,0.65,0.06,0.40,0.27,
17:25:24:006,0.38,-0.13,0.46,0.06,0.40,0.27,
17:25:24:006,0.38,-0.13,0.46,0.05,0.26,0.29,
17:25:24:010,0.38,-0.13,0.46,0.06,0.21,0.30,
17:25:24:011,0.37,-0.30,0.10,0.06,0.21,0.30,
17:25:24:015,0.42,-0.35,-0.14,0.06,0.21,0.30,
17:25:24:015,0.42,-0.35,-0.14,0.07,0.20,0.29,
17:25:24:020,0.66,-0.32,-0.04,0.07,0.20,0.29,
17:25:24:021,0.66,-0.32,-0.04,0.06,0.20,0.28,
17:25:24:025,0.66,-0.32,-0.04,0.06,0.20,0.25,
17:25:24:027,1.03,-0.29,0.20,0.06,0.20,0.25,
17:25:24:031,1.03,-0.29,0.20,0.08,0.21,0.20,
17:25:24:031,1.42,0.04,0.64,0.08,0.21,0.20,
17:25:24:034,1.21,0.05,0.73,0.08,0.21,0.20,
17:25:24:035,1.21,0.05,0.73,0.13,0.22,0.14,
17:25:24:039,1.16,-0.16,0.93,0.13,0.22,0.14,
17:25:24:040,1.16,-0.16,0.93,0.17,0.28,0.09,
17:25:24:046,1.10,0.02,0.76,0.17,0.28,0.09,
17:25:24:047,1.10,0.02,0.76,0.21,0.32,0.04,
17:25:24:049,1.10,0.02,0.76,0.26,0.37,-0.02,
17:25:24:050,0.77,0.35,0.16,0.26,0.37,-0.02,
17:25:24:054,0.65,0.02,0.05,0.26,0.37,-0.02,
17:25:24:054,0.65,0.02,0.05,0.30,0.49,-0.07,
17:25:24:074,0.65,0.02,0.05,0.33,0.62,-0.10,
17:25:24:075,0.71,-0.50,0.22,0.33,0.62,-0.10,
17:25:24:076,1.02,-0.78,0.34,0.33,0.62,-0.10,
17:25:24:076,1.02,-0.78,0.34,0.35,0.73,-0.14,
17:25:24:076,1.02,-0.78,0.34,0.38,0.84,-0.20,
17:25:24:076,1.12,-0.57,0.35,0.38,0.84,-0.20,
17:25:24:077,1.11,-0.43,0.29,0.38,0.84,-0.20,
17:25:24:077,1.11,-0.43,0.29,0.41,0.96,-0.26,
17:25:24:078,1.17,-0.53,0.15,0.41,0.96,-0.26,
17:25:24:078,1.17,-0.53,0.15,0.44,1.07,-0.31,
17:25:24:082,1.17,-0.53,0.15,0.44,1.16,-0.36,
17:25:24:083,1.21,-0.69,-0.09,0.44,1.16,-0.36,
17:25:24:087,1.21,-0.69,-0.09,0.44,1.26,-0.41,
17:25:24:088,1.14,-0.70,-0.21,0.44,1.26,-0.41,
17:25:24:094,1.14,-0.70,-0.21,0.44,1.37,-0.44,
17:25:24:094,1.21,-0.68,-0.18,0.44,1.37,-0.44,
17:25:24:097,1.21,-0.68,-0.18,0.44,1.46,-0.48,
17:25:24:097,1.46,-0.74,-0.10,0.44,1.46,-0.48,
17:25:24:102,1.46,-0.74,-0.10,0.43,1.54,-0.51,
17:25:24:102,1.84,-0.86,0.03,0.43,1.54,-0.51,
17:25:24:107,2.17,-0.99,0.02,0.43,1.54,-0.51,
17:25:24:108,2.17,-0.99,0.02,0.41,1.58,-0.56,
17:25:24:113,2.17,-0.99,0.02,0.38,1.61,-0.62,
17:25:24:113,2.34,-0.81,-0.06,0.38,1.61,-0.62,
17:25:24:123,2.34,-0.49,0.12,0.38,1.61,-0.62,
17:25:24:124,2.34,-0.49,0.12,0.37,1.68,-0.68,
17:25:24:124,2.45,-0.35,0.17,0.37,1.68,-0.68,
17:25:24:125,2.45,-0.35,0.17,0.35,1.74,-0.73,
17:25:24:129,2.45,-0.35,0.17,0.32,1.83,-0.78,
17:25:24:131,2.57,-0.16,-0.16,0.32,1.83,-0.78,
17:25:24:132,2.57,-0.16,-0.16,0.29,1.96,-0.83,
17:25:24:132,2.46,0.11,-1.05,0.29,1.96,-0.83,
17:25:24:138,2.46,0.11,-1.05,0.21,2.15,-0.88,
17:25:24:139,2.49,-0.08,-2.46,0.21,2.15,-0.88,
17:25:24:165,2.49,-0.08,-2.46,0.07,2.34,-0.95,
17:25:24:165,2.81,-0.57,-2.46,0.07,2.34,-0.95,
17:25:24:165,2.81,-0.57,-2.46,-0.12,2.44,-1.03,
17:25:24:166,2.72,-0.91,-1.47,-0.12,2.44,-1.03,
17:25:24:166,2.20,-0.81,0.04,-0.12,2.44,-1.03,
17:25:24:166,2.20,-0.81,0.04,-0.27,2.48,-1.11,
17:25:24:167,2.20,-0.81,0.04,-0.35,2.43,-1.16,
17:25:24:167,1.54,-0.53,1.63,-0.35,2.43,-1.16,
17:25:24:168,1.54,-0.53,1.63,-0.35,2.36,-1.15,
17:25:24:168,1.00,-0.29,3.18,-0.35,2.36,-1.15,
17:25:24:168,0.67,-0.33,4.24,-0.35,2.36,-1.15,
17:25:24:169,0.67,-0.33,4.24,-0.26,2.25,-1.11,
17:25:24:175,0.67,-0.33,4.24,-0.12,2.11,-1.03,
17:25:24:176,0.80,-0.55,4.81,-0.12,2.11,-1.03,
17:25:24:178,1.18,-0.77,5.04,-0.12,2.11,-1.03,
17:25:24:179,1.18,-0.77,5.04,0.05,1.99,-0.95,
17:25:24:181,1.63,-0.83,4.87,0.05,1.99,-0.95,
17:25:24:182,1.63,-0.83,4.87,0.23,1.88,-0.88,
17:25:24:184,2.00,-0.72,4.97,0.23,1.88,-0.88,
17:25:24:184,2.00,-0.72,4.97,0.41,1.82,-0.83,
17:25:24:189,2.30,-0.53,4.68,0.41,1.82,-0.83,
17:25:24:190,2.30,-0.53,4.68,0.59,1.76,-0.80,
17:25:24:194,2.45,-0.42,4.51,0.59,1.76,-0.80,
17:25:24:195,2.45,-0.42,4.51,0.75,1.70,-0.79,
17:25:24:198,2.45,-0.42,4.51,0.88,1.64,-0.77,
17:25:24:198,2.60,-0.41,4.18,0.88,1.64,-0.77,
17:25:24:203,2.60,-0.41,4.18,1.00,1.59,-0.76,
17:25:24:203,2.81,-0.48,3.79,1.00,1.59,-0.76,
17:25:24:209,2.81,-0.48,3.79,1.11,1.55,-0.76,
17:25:24:210,2.93,-0.50,3.43,1.11,1.55,-0.76,
17:25:24:213,3.09,-0.54,3.15,1.11,1.55,-0.76,
17:25:24:213,3.09,-0.54,3.15,1.20,1.52,-0.75,
17:25:24:217,3.09,-0.54,3.15,1.27,1.49,-0.75,
17:25:24:218,3.24,-0.59,2.95,1.27,1.49,-0.75,
17:25:24:224,3.24,-0.59,2.95,1.34,1.45,-0.73,
17:25:24:225,3.54,-0.74,2.85,1.34,1.45,-0.73,
17:25:24:228,3.54,-0.74,2.85,1.40,1.36,-0.72,
17:25:24:228,4.01,-0.88,2.74,1.40,1.36,-0.72,
17:25:24:232,4.24,-1.06,2.51,1.40,1.36,-0.72,
17:25:24:233,4.24,-1.06,2.51,1.45,1.24,-0.73,
17:25:24:237,4.24,-1.06,2.51,1.51,1.12,-0.72,
17:25:24:237,4.40,-1.29,2.33,1.51,1.12,-0.72,
17:25:24:243,4.40,-1.29,2.33,1.55,0.98,-0.72,
17:25:24:244,4.76,-1.42,2.10,1.55,0.98,-0.72,
17:25:24:248,5.03,-1.59,1.50,1.55,0.98,-0.72,
17:25:24:248,5.03,-1.59,1.50,1.59,0.80,-0.74,
17:25:24:252,5.03,-1.59,1.50,1.61,0.66,-0.78,
17:25:24:253,5.33,-1.92,0.72,1.61,0.66,-0.78,
17:25:24:259,5.33,-1.92,0.72,1.61,0.58,-0.85,
17:25:24:260,5.28,-2.10,-0.11,1.61,0.58,-0.85,
17:25:24:262,4.87,-2.37,-0.76,1.61,0.58,-0.85,
17:25:24:267,4.87,-2.37,-0.76,1.60,0.58,-0.92,
17:25:24:268,4.87,-2.37,-0.76,1.58,0.63,-0.96,
17:25:24:268,4.32,-1.91,-1.28,1.58,0.63,-0.96,
17:25:24:273,3.52,-1.72,-2.02,1.58,0.63,-0.96,
17:25:24:273,3.52,-1.72,-2.02,1.54,0.69,-0.97,
17:25:24:277,3.15,-1.85,-2.03,1.54,0.69,-0.97,
17:25:24:278,3.15,-1.85,-2.03,1.49,0.80,-0.94,
17:25:24:282,3.40,-2.00,-1.42,1.49,0.80,-0.94,
17:25:24:282,3.40,-2.00,-1.42,1.45,0.86,-0.89,
17:25:24:286,3.42,-2.01,-1.54,1.45,0.86,-0.89,
17:25:24:286,3.42,-2.01,-1.54,1.41,0.83,-0.84,
17:25:24:292,3.72,-2.19,-1.56,1.41,0.83,-0.84,
17:25:24:293,3.72,-2.19,-1.56,1.38,0.80,-0.78,
17:25:24:296,3.72,-2.19,-1.56,1.37,0.78,-0.73,
17:25:24:296,4.22,-2.54,-1.47,1.37,0.78,-0.73,
17:25:24:301,4.22,-2.54,-1.47,1.37,0.75,-0.70,
17:25:24:301,4.70,-2.91,-1.68,1.37,0.75,-0.70,
17:25:24:305,4.91,-3.18,-1.97,1.37,0.75,-0.70,
17:25:24:306,4.91,-3.18,-1.97,1.37,0.72,-0.72,
17:25:24:311,4.68,-3.16,-2.36,1.37,0.72,-0.72,
17:25:24:311,4.68,-3.16,-2.36,1.35,0.70,-0.75,
17:25:24:315,4.68,-3.16,-2.36,1.34,0.72,-0.78,
17:25:24:316,4.21,-3.20,-2.69,1.34,0.72,-0.78,
17:25:24:320,3.87,-3.30,-2.74,1.34,0.72,-0.78,
17:25:24:320,3.87,-3.30,-2.74,1.34,0.78,-0.77,
17:25:24:326,3.84,-3.33,-2.82,1.34,0.78,-0.77,
17:25:24:327,3.84,-3.33,-2.82,1.35,0.82,-0.75,
17:25:24:330,3.84,-3.33,-2.82,1.34,0.81,-0.75,
17:25:24:330,3.94,-3.41,-3.01,1.34,0.81,-0.75,
17:25:24:335,4.23,-3.50,-3.56,1.34,0.81,-0.75,
17:25:24:335,4.23,-3.50,-3.56,1.33,0.73,-0.77,
17:25:24:340,4.23,-3.50,-3.56,1.28,0.66,-0.83,
17:25:24:340,4.29,-3.61,-4.08,1.28,0.66,-0.83,
17:25:24:344,4.27,-3.71,-4.64,1.28,0.66,-0.83,
17:25:24:345,4.27,-3.71,-4.64,1.22,0.60,-0.91,
17:25:24:349,4.14,-3.72,-5.18,1.22,0.60,-0.91,
17:25:24:350,4.14,-3.72,-5.18,1.14,0.56,-1.00,
17:25:24:354,4.14,-3.72,-5.18,1.04,0.56,-1.10,
17:25:24:355,3.77,-3.55,-5.67,1.04,0.56,-1.10,
17:25:24:366,3.77,-3.55,-5.67,0.93,0.58,-1.19,
17:25:24:367,3.49,-3.30,-6.01,0.93,0.58,-1.19,
17:25:24:369,3.16,-3.06,-6.25,0.93,0.58,-1.19,
17:25:24:369,3.16,-3.06,-6.25,0.81,0.62,-1.27,
17:25:24:370,3.16,-3.06,-6.25,0.69,0.67,-1.34,
17:25:24:370,2.90,-3.09,-6.31,0.69,0.67,-1.34,
17:25:24:389,2.90,-3.09,-6.31,0.57,0.72,-1.39,
17:25:24:390,2.77,-3.25,-6.07,0.57,0.72,-1.39,
17:25:24:390,2.67,-3.32,-6.05,0.57,0.72,-1.39,
17:25:24:390,2.67,-3.32,-6.05,0.46,0.73,-1.46,
17:25:24:413,2.57,-3.38,-6.00,0.46,0.73,-1.46,
17:25:24:414,2.57,-3.38,-6.00,0.35,0.72,-1.53,
17:25:24:414,2.44,-3.34,-5.79,0.35,0.72,-1.53,
17:25:24:415,2.44,-3.34,-5.79,0.23,0.68,-1.61,
17:25:24:415,2.44,-3.34,-5.79,0.11,0.60,-1.71,
17:25:24:415,2.18,-3.21,-5.73,0.11,0.60,-1.71,
17:25:24:416,1.67,-3.08,-5.51,0.11,0.60,-1.71,
17:25:24:416,1.67,-3.08,-5.51,-0.02,0.49,-1.82,
17:25:24:417,1.67,-3.08,-5.51,-0.14,0.39,-1.93,
17:25:24:417,1.02,-2.88,-5.30,-0.14,0.39,-1.93,
17:25:24:417,1.02,-2.88,-5.30,-0.26,0.28,-2.03,
17:25:24:418,0.22,-2.64,-5.16,-0.26,0.28,-2.03,
17:25:24:418,-0.75,-2.41,-4.83,-0.26,0.28,-2.03,
17:25:24:421,-0.75,-2.41,-4.83,-0.38,0.20,-2.10,
17:25:24:424,-0.75,-2.41,-4.83,-0.48,0.12,-2.14,
17:25:24:425,-1.62,-2.30,-4.35,-0.48,0.12,-2.14,
17:25:24:425,-2.47,-2.24,-4.04,-0.48,0.12,-2.14,
17:25:24:425,-2.47,-2.24,-4.04,-0.56,0.04,-2.15,
17:25:24:427,-2.47,-2.24,-4.04,-0.63,-0.04,-2.13,
17:25:24:428,-3.15,-2.18,-3.59,-0.63,-0.04,-2.13,
17:25:24:433,-3.15,-2.18,-3.59,-0.70,-0.13,-2.08,
17:25:24:434,-3.80,-2.09,-3.40,-0.70,-0.13,-2.08,
17:25:24:436,-3.80,-2.09,-3.40,-0.76,-0.20,-2.02,
17:25:24:436,-4.22,-1.96,-2.98,-0.76,-0.20,-2.02,
17:25:24:443,-4.22,-1.96,-2.98,-0.81,-0.28,-1.95,
17:25:24:445,-4.39,-1.79,-2.60,-0.81,-0.28,-1.95,
17:25:24:446,-4.39,-1.79,-2.60,-0.85,-0.37,-1.88,
17:25:24:447,-4.27,-1.58,-2.17,-0.85,-0.37,-1.88,
17:25:24:453,-4.27,-1.58,-2.17,-0.89,-0.47,-1.83,
17:25:24:453,-3.98,-1.29,-1.71,-0.89,-0.47,-1.83,
17:25:24:458,-3.98,-1.29,-1.71,-0.91,-0.59,-1.80,
17:25:24:458,-3.53,-1.03,-1.51,-0.91,-0.59,-1.80,
17:25:24:461,-3.53,-1.03,-1.51,-0.92,-0.68,-1.80,
17:25:24:462,-2.91,-0.92,-1.25,-0.92,-0.68,-1.80,
17:25:24:466,-2.91,-0.92,-1.25,-0.92,-0.76,-1.83,
17:25:24:466,-2.29,-0.98,-1.16,-0.92,-0.76,-1.83,
17:25:24:471,-2.29,-0.98,-1.16,-0.91,-0.81,-1.89,
17:25:24:471,-1.93,-1.01,-1.33,-0.91,-0.81,-1.89,
17:25:24:478,-1.93,-1.01,-1.33,-0.91,-0.80,-1.97,
17:25:24:478,-1.67,-1.23,-1.48,-0.91,-0.80,-1.97,
17:25:24:480,-1.67,-1.23,-1.48,-0.91,-0.73,-2.06,
17:25:24:481,-1.78,-1.48,-1.80,-0.91,-0.73,-2.06,
17:25:24:485,-1.78,-1.48,-1.80,-0.92,-0.60,-2.15,
17:25:24:485,-2.14,-1.62,-2.16,-0.92,-0.60,-2.15,
17:25:24:495,-2.14,-1.62,-2.16,-0.93,-0.39,-2.21,
17:25:24:496,-2.54,-1.81,-2.48,-0.93,-0.39,-2.21,
17:25:24:497,-2.91,-1.99,-2.93,-0.93,-0.39,-2.21,
17:25:24:497,-2.91,-1.99,-2.93,-0.95,-0.14,-2.26,
17:25:24:500,-2.91,-1.99,-2.93,-0.99,0.15,-2.30,
17:25:24:502,-3.38,-1.95,-3.11,-0.99,0.15,-2.30,
17:25:24:507,-3.38,-1.95,-3.11,-1.03,0.46,-2.32,
17:25:24:511,-3.86,-1.71,-3.05,-1.03,0.46,-2.32,
17:25:24:512,-4.25,-1.37,-2.86,-1.03,0.46,-2.32,
17:25:24:513,-4.25,-1.37,-2.86,-1.08,0.73,-2.32,
17:25:24:527,-4.25,-1.37,-2.86,-1.12,0.96,-2.29,
17:25:24:528,-4.62,-1.04,-2.55,-1.12,0.96,-2.29,
17:25:24:529,-4.62,-1.04,-2.55,-1.17,1.15,-2.25,
17:25:24:529,-5.00,-0.70,-2.23,-1.17,1.15,-2.25,
17:25:24:529,-5.00,-0.70,-2.23,-1.20,1.31,-2.18,
17:25:24:530,-5.23,-0.36,-1.81,-1.20,1.31,-2.18,
17:25:24:530,-5.23,-0.36,-1.81,-1.22,1.44,-2.09,
17:25:24:530,-5.43,-0.09,-1.35,-1.22,1.44,-2.09,
17:25:24:535,-5.46,0.13,-0.97,-1.22,1.44,-2.09,
17:25:24:535,-5.46,0.13,-0.97,-1.21,1.53,-1.99,
17:25:24:539,-5.27,0.29,-0.58,-1.21,1.53,-1.99,
17:25:24:540,-5.27,0.29,-0.58,-1.19,1.60,-1.89,
17:25:24:543,-5.27,0.29,-0.58,-1.15,1.66,-1.78,
17:25:24:545,-4.98,0.40,-0.18,-1.15,1.66,-1.78,
17:25:24:549,-4.98,0.40,-0.18,-1.09,1.70,-1.68,
17:25:24:549,-4.58,0.44,0.16,-1.09,1.70,-1.68,
17:25:24:555,-4.12,0.43,0.65,-1.09,1.70,-1.68,
17:25:24:556,-4.12,0.43,0.65,-1.02,1.72,-1.58,
17:25:24:562,-4.12,0.43,0.65,-0.94,1.71,-1.49,
17:25:24:563,-3.55,0.44,1.04,-0.94,1.71,-1.49,
17:25:24:564,-3.55,0.44,1.04,-0.85,1.69,-1.41,
17:25:24:564,-3.07,0.40,1.36,-0.85,1.69,-1.41,
17:25:24:569,-3.07,0.40,1.36,-0.76,1.67,-1.34,
17:25:24:570,-2.65,0.34,1.39,-0.76,1.67,-1.34,
17:25:24:580,-2.42,0.18,1.55,-0.76,1.67,-1.34,
17:25:24:581,-2.42,0.18,1.55,-0.67,1.65,-1.29,
17:25:24:584,-2.19,0.13,1.85,-0.67,1.65,-1.29,
17:25:24:585,-2.19,0.13,1.85,-0.59,1.64,-1.23,
17:25:24:585,-1.94,0.24,2.05,-0.59,1.64,-1.23,
17:25:24:586,-1.94,0.24,2.05,-0.50,1.60,-1.18,
17:25:24:593,-1.94,0.24,2.05,-0.41,1.50,-1.15,
17:25:24:594,-1.67,0.35,2.04,-0.41,1.50,-1.15,
17:25:24:595,-1.67,0.35,2.04,-0.34,1.37,-1.13,
17:25:24:595,-1.46,0.43,1.86,-0.34,1.37,-1.13,
17:25:24:600,-1.46,0.43,1.86,-0.27,1.23,-1.12,
17:25:24:602,-1.28,0.44,1.48,-0.27,1.23,-1.12,
17:25:24:602,-1.28,0.44,1.48,-0.21,1.11,-1.11,
17:25:24:603,-1.19,0.40,1.03,-0.21,1.11,-1.11,
17:25:24:638,-1.20,0.27,0.53,-0.21,1.11,-1.11,
17:25:24:663,-1.25,0.09,-0.03,-0.21,1.11,-1.11,
17:25:24:670,-1.25,0.09,-0.03,-0.17,1.03,-1.12,
17:25:24:671,-1.25,0.09,-0.03,-0.15,0.99,-1.14,
17:25:24:677,-1.25,0.09,-0.03,-0.14,1.03,-1.17,
17:25:24:680,-1.31,-0.04,-0.54,-0.14,1.03,-1.17,
17:25:24:689,-1.31,-0.04,-0.54,-0.15,1.12,-1.21,
17:25:24:690,-1.30,-0.12,-0.94,-0.15,1.12,-1.21,
17:25:24:724,-1.30,-0.12,-0.94,-0.15,1.26,-1.26,
17:25:24:725,-1.29,-0.18,-1.29,-0.15,1.26,-1.26,
17:25:24:725,-1.33,-0.17,-1.54,-0.15,1.26,-1.26,
17:25:24:726,-1.33,-0.17,-1.54,-0.17,1.42,-1.31,
17:25:24:726,-1.33,-0.17,-1.54,-0.19,1.61,-1.37,
17:25:24:727,-1.41,-0.08,-1.72,-0.19,1.61,-1.37,
17:25:24:727,-1.55,0.02,-1.85,-0.19,1.61,-1.37,
17:25:24:728,-1.55,0.02,-1.85,-0.20,1.79,-1.43,
17:25:24:728,-1.73,0.18,-1.90,-0.20,1.79,-1.43,
17:25:24:729,-1.91,0.24,-1.86,-0.20,1.79,-1.43,
17:25:24:729,-1.91,0.24,-1.86,-0.22,1.98,-1.48,
17:25:24:730,-1.91,0.24,-1.86,-0.24,2.17,-1.53,
17:25:24:730,-1.98,0.24,-1.69,-0.24,2.17,-1.53,
17:25:24:730,-1.98,0.24,-1.69,-0.27,2.34,-1.56,
17:25:24:731,-1.98,0.24,-1.69,-0.31,2.48,-1.61,
17:25:24:732,-1.92,0.22,-1.50,-0.31,2.48,-1.61,
17:25:24:732,-1.93,0.36,-1.16,-0.31,2.48,-1.61,
17:25:24:733,-1.93,0.36,-1.16,-0.35,2.58,-1.65,
17:25:24:733,-1.93,0.36,-1.16,-0.39,2.63,-1.70,
17:25:24:733,-2.02,0.57,-0.79,-0.39,2.63,-1.70,
17:25:24:734,-2.15,0.69,-0.35,-0.39,2.63,-1.70,
17:25:24:734,-2.15,0.69,-0.35,-0.43,2.64,-1.73,
17:25:24:735,-2.32,0.68,0.23,-0.43,2.64,-1.73,
17:25:24:735,-2.32,0.68,0.23,-0.46,2.60,-1.76,
17:25:24:736,-2.45,0.62,0.77,-0.46,2.60,-1.76,
17:25:24:736,-2.45,0.62,0.77,-0.48,2.52,-1.77,
17:25:24:737,-2.70,0.59,1.25,-0.48,2.52,-1.77,
17:25:24:737,-2.70,0.59,1.25,-0.48,2.41,-1.77,
17:25:24:738,-3.19,0.51,1.60,-0.48,2.41,-1.77,
17:25:24:738,-3.19,0.51,1.60,-0.47,2.28,-1.74,
17:25:24:739,-3.19,0.51,1.60,-0.45,2.16,-1.68,
17:25:24:739,-3.79,0.45,1.98,-0.45,2.16,-1.68,
17:25:24:739,-3.79,0.45,1.98,-0.41,2.03,-1.58,
17:25:24:740,-4.31,0.47,2.28,-0.41,2.03,-1.58,
17:25:24:740,-4.71,0.60,2.48,-0.41,2.03,-1.58,
17:25:24:740,-4.71,0.60,2.48,-0.35,1.89,-1.44,
17:25:24:741,-4.71,0.60,2.48,-0.27,1.74,-1.29,
17:25:24:741,-4.84,0.63,2.63,-0.27,1.74,-1.29,
17:25:24:742,-4.64,0.61,2.53,-0.27,1.74,-1.29,
17:25:24:742,-4.64,0.61,2.53,-0.18,1.57,-1.12,
17:25:24:743,-4.32,0.57,2.28,-0.18,1.57,-1.12,
17:25:24:743,-4.32,0.57,2.28,-0.09,1.38,-0.97,
17:25:24:743,-3.94,0.50,1.76,-0.09,1.38,-0.97,
17:25:24:744,-3.94,0.50,1.76,-0.02,1.18,-0.84,
17:25:24:744,-3.94,0.50,1.76,0.04,0.99,-0.73,
17:25:24:745,-3.54,0.48,1.10,0.04,0.99,-0.73,
17:25:24:745,-3.54,0.48,1.10,0.06,0.83,-0.64,
17:25:24:745,-3.19,0.46,0.42,0.06,0.83,-0.64,
17:25:24:746,-2.89,0.50,-0.26,0.06,0.83,-0.64,
17:25:24:746,-2.89,0.50,-0.26,0.05,0.70,-0.58,
17:25:24:748,-2.63,0.54,-0.86,0.05,0.70,-0.58,
17:25:24:748,-2.63,0.54,-0.86,0.02,0.60,-0.53,
17:25:24:753,-2.42,0.54,-1.31,0.02,0.60,-0.53,
17:25:24:753,-2.42,0.54,-1.31,-0.04,0.55,-0.48,
17:25:24:759,-2.12,0.44,-1.53,-0.04,0.55,-0.48,
17:25:24:765,-2.12,0.44,-1.53,-0.11,0.53,-0.44,
17:25:24:766,-1.73,0.31,-1.55,-0.11,0.53,-0.44,
17:25:24:767,-1.73,0.31,-1.55,-0.19,0.54,-0.42,
17:25:24:767,-1.73,0.31,-1.55,-0.27,0.56,-0.41,
17:25:24:767,-1.33,0.17,-1.44,-0.27,0.56,-0.41,
17:25:24:772,-1.33,0.17,-1.44,-0.34,0.59,-0.42,
17:25:24:773,-0.98,0.02,-1.34,-0.34,0.59,-0.42,
17:25:24:776,-0.72,-0.09,-1.26,-0.34,0.59,-0.42,
17:25:24:777,-0.72,-0.09,-1.26,-0.41,0.63,-0.44,
17:25:24:781,-0.63,-0.13,-1.06,-0.41,0.63,-0.44,
17:25:24:782,-0.63,-0.13,-1.06,-0.47,0.69,-0.48,
17:25:24:787,-0.69,-0.23,-0.70,-0.47,0.69,-0.48,
17:25:24:787,-0.69,-0.23,-0.70,-0.52,0.76,-0.50,
17:25:24:804,-0.69,-0.23,-0.70,-0.55,0.84,-0.53,
17:25:24:805,-0.83,-0.31,-0.43,-0.55,0.84,-0.53,
17:25:24:805,-1.07,-0.24,-0.20,-0.55,0.84,-0.53,
17:25:24:806,-1.07,-0.24,-0.20,-0.58,0.92,-0.54,
17:25:24:806,-1.07,-0.24,-0.20,-0.60,1.00,-0.54,
17:25:24:807,-1.32,-0.03,0.20,-0.60,1.00,-0.54,
17:25:24:807,-1.32,-0.03,0.20,-0.60,1.06,-0.52,
17:25:24:807,-1.62,0.13,0.62,-0.60,1.06,-0.52,
17:25:24:811,-1.71,0.30,0.86,-0.60,1.06,-0.52,
17:25:24:811,-1.71,0.30,0.86,-0.58,1.10,-0.50,
17:25:24:815,-1.64,0.49,1.16,-0.58,1.10,-0.50,
17:25:24:816,-1.64,0.49,1.16,-0.56,1.12,-0.47,
17:25:24:820,-1.65,0.63,1.39,-0.56,1.12,-0.47,
17:25:24:821,-1.65,0.63,1.39,-0.53,1.10,-0.45,
17:25:24:825,-1.77,0.68,1.64,-0.53,1.10,-0.45,
17:25:24:827,-1.77,0.68,1.64,-0.49,1.07,-0.42,
17:25:24:832,-1.66,0.69,1.66,-0.49,1.07,-0.42,
17:25:24:833,-1.66,0.69,1.66,-0.45,1.02,-0.38,
17:25:24:835,-1.66,0.69,1.66,-0.40,0.98,-0.35,
17:25:24:835,-1.64,0.60,1.72,-0.40,0.98,-0.35,
17:25:24:841,-1.62,0.49,1.72,-0.40,0.98,-0.35,
17:25:24:843,-1.62,0.49,1.72,-0.35,0.94,-0.32,
17:25:24:846,-1.47,0.40,1.56,-0.35,0.94,-0.32,
17:25:24:848,-1.47,0.40,1.56,-0.29,0.92,-0.29,
17:25:24:851,-1.34,0.26,1.48,-0.29,0.92,-0.29,
17:25:24:852,-1.34,0.26,1.48,-0.24,0.90,-0.27,
17:25:24:856,-1.25,-0.02,1.35,-0.24,0.90,-0.27,
17:25:24:858,-1.25,-0.02,1.35,-0.19,0.91,-0.26,
17:25:24:860,-1.25,-0.02,1.35,-0.14,0.93,-0.26,
17:25:24:861,-1.21,-0.28,0.96,-0.14,0.93,-0.26,
17:25:24:865,-1.17,-0.40,0.58,-0.14,0.93,-0.26,
17:25:24:866,-1.17,-0.40,0.58,-0.10,0.99,-0.26,
17:25:24:915,-1.19,-0.34,0.33,-0.10,0.99,-0.26,
17:25:24:916,-1.19,-0.23,-0.00,-0.10,0.99,-0.26,
17:25:24:918,-1.19,-0.23,-0.00,-0.07,1.06,-0.27,
17:25:24:918,-1.19,-0.23,-0.00,-0.05,1.14,-0.28,
17:25:24:919,-1.07,-0.17,-0.36,-0.05,1.14,-0.28,
17:25:24:919,-1.07,-0.17,-0.36,-0.04,1.22,-0.29,
17:25:24:920,-1.07,-0.17,-0.36,-0.05,1.30,-0.31,
17:25:24:921,-0.95,-0.15,-0.75,-0.05,1.30,-0.31,
17:25:24:922,-0.80,-0.19,-1.22,-0.05,1.30,-0.31,
17:25:24:922,-0.80,-0.19,-1.22,-0.07,1.38,-0.34,
17:25:24:923,-0.67,-0.16,-1.40,-0.07,1.38,-0.34,
17:25:24:923,-0.67,-0.16,-1.40,-0.12,1.47,-0.38,
17:25:24:924,-0.67,-0.16,-1.40,-0.18,1.56,-0.42,
17:25:24:924,-0.66,-0.14,-1.46,-0.18,1.56,-0.42,
17:25:24:925,-0.66,-0.14,-1.46,-0.23,1.63,-0.45,
17:25:24:925,-0.58,-0.16,-1.35,-0.23,1.63,-0.45,
17:25:24:926,-0.57,-0.17,-1.42,-0.23,1.63,-0.45,
17:25:24:926,-0.57,-0.17,-1.42,-0.29,1.68,-0.49,
17:25:24:927,-0.57,-0.17,-1.42,-0.35,1.73,-0.53,
17:25:24:929,-0.55,-0.09,-1.27,-0.35,1.73,-0.53,
17:25:24:931,-0.55,-0.09,-1.27,-0.40,1.76,-0.56,
17:25:24:931,-0.55,-0.05,-1.07,-0.40,1.76,-0.56,
17:25:24:933,-0.60,-0.12,-0.84,-0.40,1.76,-0.56,
17:25:24:934,-0.60,-0.12,-0.84,-0.45,1.77,-0.59,
17:25:24:934,-0.60,-0.12,-0.84,-0.49,1.77,-0.61,
17:25:24:934,-0.65,-0.21,-0.72,-0.49,1.77,-0.61,
17:25:24:935,-0.65,-0.21,-0.72,-0.52,1.77,-0.63,
17:25:24:935,-0.80,-0.16,-0.49,-0.52,1.77,-0.63,
17:25:24:937,-0.80,-0.16,-0.49,-0.54,1.75,-0.64,
17:25:24:937,-0.89,-0.11,-0.24,-0.54,1.75,-0.64,
17:25:24:942,-0.89,-0.11,-0.24,-0.56,1.70,-0.64,
17:25:24:943,-1.05,-0.06,0.07,-0.56,1.70,-0.64,
17:25:24:947,-1.05,-0.06,0.07,-0.57,1.63,-0.64,
17:25:24:947,-1.29,-0.11,0.23,-0.57,1.63,-0.64,
17:25:24:952,-1.68,-0.21,0.38,-0.57,1.63,-0.64,
17:25:24:952,-1.68,-0.21,0.38,-0.58,1.54,-0.61,
17:25:24:956,-1.68,-0.21,0.38,-0.59,1.45,-0.57,
17:25:24:957,-2.20,-0.30,0.44,-0.59,1.45,-0.57,
17:25:24:961,-2.20,-0.30,0.44,-0.60,1.38,-0.48,
17:25:24:962,-2.72,-0.38,0.59,-0.60,1.38,-0.48,
17:25:24:966,-2.72,-0.38,0.59,-0.59,1.32,-0.36,
17:25:24:967,-3.06,-0.32,0.69,-0.59,1.32,-0.36,
17:25:24:971,-3.05,-0.25,0.75,-0.59,1.32,-0.36,
17:25:24:972,-3.05,-0.25,0.75,-0.57,1.28,-0.23,
17:25:24:976,-3.05,-0.25,0.75,-0.53,1.24,-0.10,
17:25:24:977,-2.74,-0.11,0.72,-0.53,1.24,-0.10,
17:25:24:981,-2.74,-0.11,0.72,-0.49,1.21,0.01,
17:25:24:982,-2.31,-0.06,0.81,-0.49,1.21,0.01,
17:25:24:986,-1.71,-0.12,0.42,-0.49,1.21,0.01,
17:25:24:987,-1.71,-0.12,0.42,-0.45,1.18,0.09,
17:25:24:992,-1.71,-0.12,0.42,-0.41,1.19,0.13,
17:25:24:994,-1.15,-0.14,0.32,-0.41,1.19,0.13,
17:25:24:996,-1.15,-0.14,0.32,-0.38,1.19,0.14,
17:25:24:997,-0.81,-0.30,0.34,-0.38,1.19,0.14,
17:25:25:002,-0.57,-0.53,-0.08,-0.38,1.19,0.14,
17:25:25:003,-0.57,-0.53,-0.08,-0.35,1.18,0.13,
17:25:25:005,-0.57,-0.53,-0.08,-0.33,1.21,0.11,
17:25:25:006,-0.33,-0.66,-0.21,-0.33,1.21,0.11,
17:25:25:010,-0.33,-0.66,-0.21,-0.33,1.23,0.07,
17:25:25:011,-0.20,-0.84,-0.45,-0.33,1.23,0.07,
17:25:25:015,-0.07,-0.91,-0.68,-0.33,1.23,0.07,
17:25:25:016,-0.07,-0.91,-0.68,-0.34,1.25,0.04,
17:25:25:022,-0.07,-0.91,-0.68,-0.35,1.29,-0.00,
17:25:25:025,0.05,-0.96,-0.83,-0.35,1.29,-0.00,
17:25:25:026,0.11,-1.03,-0.88,-0.35,1.29,-0.00,
17:25:25:027,0.11,-1.03,-0.88,-0.38,1.32,-0.04,
17:25:25:029,0.11,-1.03,-0.88,-0.42,1.33,-0.08,
17:25:25:030,0.22,-1.07,-0.84,-0.42,1.33,-0.08,
17:25:25:034,0.22,-1.07,-0.84,-0.46,1.31,-0.11,
17:25:25:035,0.03,-0.98,-0.58,-0.46,1.31,-0.11,
17:25:25:040,0.03,-0.98,-0.58,-0.50,1.24,-0.12,
17:25:25:042,-0.15,-0.97,-0.45,-0.50,1.24,-0.12,
17:25:25:045,-0.34,-0.85,-0.18,-0.50,1.24,-0.12,
17:25:25:046,-0.34,-0.85,-0.18,-0.55,1.14,-0.13,
17:25:25:055,-0.34,-0.85,-0.18,-0.60,0.99,-0.12,
17:25:25:064,-0.77,-0.74,0.31,-0.60,0.99,-0.12,
17:25:25:065,-0.77,-0.74,0.31,-0.64,0.80,-0.08,
17:25:25:065,-1.26,-0.55,0.63,-0.64,0.80,-0.08,
17:25:25:065,-1.26,-0.55,0.63,-0.68,0.60,-0.01,
17:25:25:067,-1.69,-0.47,0.72,-0.68,0.60,-0.01,
17:25:25:068,-2.06,-0.43,1.23,-0.68,0.60,-0.01,
17:25:25:069,-2.06,-0.43,1.23,-0.71,0.41,0.07,
17:25:25:069,-2.06,-0.43,1.23,-0.72,0.21,0.19,
17:25:25:070,-2.35,-0.44,1.36,-0.72,0.21,0.19,
17:25:25:073,-2.35,-0.44,1.36,-0.71,0.04,0.31,
17:25:25:075,-2.32,-0.27,1.66,-0.71,0.04,0.31,
17:25:25:082,-2.32,-0.27,1.66,-0.67,-0.12,0.42,
17:25:25:083,-1.93,-0.20,1.70,-0.67,-0.12,0.42,
17:25:25:083,-1.93,-0.20,1.70,-0.62,-0.27,0.51,
17:25:25:084,-1.43,-0.15,1.55,-0.62,-0.27,0.51,
17:25:25:087,-1.19,0.11,1.19,-0.62,-0.27,0.51,
17:25:25:088,-1.19,0.11,1.19,-0.56,-0.37,0.56,
17:25:25:092,-1.19,0.11,1.19,-0.51,-0.44,0.61,
17:25:25:093,-0.94,0.13,0.79,-0.51,-0.44,0.61,
17:25:25:098,-0.94,0.13,0.79,-0.46,-0.45,0.64,
17:25:25:099,-0.40,-0.28,0.41,-0.46,-0.45,0.64,
17:25:25:102,0.15,-0.72,-0.01,-0.46,-0.45,0.64,
17:25:25:103,0.15,-0.72,-0.01,-0.41,-0.40,0.64,
17:25:25:106,0.15,-0.72,-0.01,-0.37,-0.32,0.62,
17:25:25:107,0.53,-0.95,-0.48,-0.37,-0.32,0.62,
17:25:25:172,0.53,-0.95,-0.48,-0.35,-0.23,0.58,
17:25:25:173,0.69,-0.87,-0.91,-0.35,-0.23,0.58,
17:25:25:174,0.85,-0.89,-1.26,-0.35,-0.23,0.58,
17:25:25:174,0.85,-0.89,-1.26,-0.36,-0.13,0.54,
17:25:25:175,0.85,-0.89,-1.26,-0.39,-0.02,0.49,
17:25:25:176,0.88,-0.87,-1.40,-0.39,-0.02,0.49,
17:25:25:176,0.82,-0.93,-1.45,-0.39,-0.02,0.49,
17:25:25:184,0.82,-0.93,-1.45,-0.42,0.08,0.45,
17:25:25:185,0.72,-0.97,-1.42,-0.42,0.08,0.45,
17:25:25:185,0.72,-0.97,-1.42,-0.46,0.16,0.41,
17:25:25:186,0.72,-0.97,-1.42,-0.51,0.22,0.38,
17:25:25:187,0.59,-0.95,-1.39,-0.51,0.22,0.38,
17:25:25:187,0.59,-0.95,-1.39,-0.55,0.26,0.35,
17:25:25:188,0.33,-0.94,-1.22,-0.55,0.26,0.35,
17:25:25:189,0.33,-0.94,-1.22,-0.59,0.27,0.33,
17:25:25:189,0.09,-0.96,-0.95,-0.59,0.27,0.33,
17:25:25:190,-0.21,-0.98,-0.93,-0.59,0.27,0.33,
17:25:25:190,-0.21,-0.98,-0.93,-0.63,0.25,0.33,
17:25:25:191,-0.68,-1.01,-1.02,-0.63,0.25,0.33,
17:25:25:192,-0.68,-1.01,-1.02,-0.68,0.21,0.33,
17:25:25:192,-0.68,-1.01,-1.02,-0.72,0.18,0.36,
17:25:25:193,-1.04,-0.89,-0.81,-0.72,0.18,0.36,
17:25:25:193,-1.10,-0.87,-0.80,-0.72,0.18,0.36,
17:25:25:194,-1.10,-0.87,-0.80,-0.77,0.13,0.40,
17:25:25:194,-1.10,-0.87,-0.80,-0.79,0.10,0.43,
17:25:25:195,-1.04,-0.79,-0.78,-0.79,0.10,0.43,
17:25:25:195,-1.04,-0.79,-0.78,-0.82,0.07,0.46,
17:25:25:196,-1.04,-0.71,-0.80,-0.82,0.07,0.46,
17:25:25:199,-1.06,-0.85,-0.71,-0.82,0.07,0.46,
17:25:25:200,-1.06,-0.85,-0.71,-0.84,0.06,0.48,
17:25:25:200,-1.08,-0.97,-0.83,-0.84,0.06,0.48,
17:25:25:201,-1.08,-0.97,-0.83,-0.85,0.05,0.50,
17:25:25:202,-1.08,-0.97,-0.83,-0.85,0.07,0.52,
17:25:25:202,-1.02,-0.96,-0.79,-0.85,0.07,0.52,
17:25:25:203,-1.02,-0.96,-0.79,-0.85,0.09,0.53,
17:25:25:203,-0.94,-0.82,-0.99,-0.85,0.09,0.53,
17:25:25:203,-0.94,-0.82,-0.99,-0.85,0.13,0.53,
17:25:25:204,-0.84,-0.72,-0.90,-0.85,0.13,0.53,
17:25:25:204,-0.84,-0.72,-0.90,-0.87,0.13,0.53,
17:25:25:205,-0.69,-0.74,-0.79,-0.87,0.13,0.53,
17:25:25:208,-0.70,-0.71,-0.74,-0.87,0.13,0.53,
17:25:25:209,-0.70,-0.71,-0.74,-0.89,0.12,0.53,
17:25:25:213,-0.71,-0.63,-0.69,-0.89,0.12,0.53,
17:25:25:214,-0.71,-0.63,-0.69,-0.90,0.10,0.53,
17:25:25:218,-0.71,-0.63,-0.69,-0.92,0.08,0.54,
17:25:25:218,-0.68,-0.65,-0.44,-0.92,0.08,0.54,
17:25:25:235,-0.68,-0.65,-0.44,-0.93,0.06,0.55,
17:25:25:235,-0.62,-0.59,-0.34,-0.93,0.06,0.55,
17:25:25:236,-0.39,-0.60,-0.04,-0.93,0.06,0.55,
17:25:25:237,-0.39,-0.60,-0.04,-0.94,0.03,0.56,
17:25:25:237,-0.39,-0.60,-0.04,-0.94,-0.01,0.56,
17:25:25:238,-0.38,-0.41,0.03,-0.94,-0.01,0.56,
17:25:25:238,-0.53,-0.23,0.32,-0.94,-0.01,0.56,
17:25:25:238,-0.53,-0.23,0.32,-0.94,-0.04,0.58,
17:25:25:243,-0.53,-0.23,0.32,-0.93,-0.09,0.60,
17:25:25:244,-0.22,-0.54,0.28,-0.93,-0.09,0.60,
17:25:25:247,0.02,-0.89,0.59,-0.93,-0.09,0.60,
17:25:25:247,0.02,-0.89,0.59,-0.91,-0.13,0.59,
17:25:25:253,0.02,-0.89,0.59,-0.90,-0.18,0.57,
17:25:25:254,0.20,-1.06,0.36,-0.90,-0.18,0.57,
17:25:25:257,0.20,-1.06,0.36,-0.88,-0.22,0.54,
17:25:25:258,0.33,-1.09,0.64,-0.88,-0.22,0.54,
17:25:25:262,0.31,-0.93,0.42,-0.88,-0.22,0.54,
17:25:25:263,0.31,-0.93,0.42,-0.86,-0.27,0.52,
17:25:25:267,0.31,-0.93,0.42,-0.85,-0.32,0.49,
17:25:25:267,0.36,-0.94,0.50,-0.85,-0.32,0.49,
17:25:25:272,0.36,-0.94,0.50,-0.84,-0.36,0.48,
17:25:25:272,0.33,-0.97,0.20,-0.84,-0.36,0.48,
17:25:25:276,0.37,-1.00,0.16,-0.84,-0.36,0.48,
17:25:25:277,0.37,-1.00,0.16,-0.84,-0.37,0.46,
17:25:25:281,0.43,-0.99,0.06,-0.84,-0.37,0.46,
17:25:25:282,0.43,-0.99,0.06,-0.84,-0.40,0.43,
17:25:25:286,0.43,-0.99,0.06,-0.83,-0.42,0.40,
17:25:25:287,0.53,-0.94,-0.09,-0.83,-0.42,0.40,
17:25:25:291,0.59,-0.95,-0.18,-0.83,-0.42,0.40,
17:25:25:292,0.59,-0.95,-0.18,-0.84,-0.43,0.37,
17:25:25:296,0.59,-0.95,-0.18,-0.84,-0.45,0.34,
17:25:25:297,0.69,-0.99,-0.24,-0.84,-0.45,0.34,
17:25:25:301,0.69,-0.99,-0.24,-0.86,-0.46,0.31,
17:25:25:302,0.68,-1.00,-0.32,-0.86,-0.46,0.31,
17:25:25:305,0.68,-1.00,-0.32,-0.88,-0.46,0.28,
17:25:25:306,0.62,-1.00,-0.23,-0.88,-0.46,0.28,
17:25:25:311,0.62,-1.00,-0.23,-0.89,-0.46,0.26,
17:25:25:311,0.36,-0.93,0.92,-0.89,-0.46,0.26,
17:25:25:315,0.36,-0.93,0.92,-0.84,-0.48,0.24,
17:25:25:316,-0.11,-0.68,3.23,-0.84,-0.48,0.24,
17:25:25:320,-0.51,-0.39,5.63,-0.84,-0.48,0.24,
17:25:25:321,-0.51,-0.39,5.63,-0.69,-0.55,0.25,
17:25:25:325,-0.65,-0.17,7.10,-0.69,-0.55,0.25,
17:25:25:326,-0.65,-0.17,7.10,-0.45,-0.64,0.28,
17:25:25:330,-0.65,-0.17,7.10,-0.17,-0.73,0.32,
17:25:25:331,-0.49,-0.02,6.78,-0.17,-0.73,0.32,
17:25:25:335,-0.49,-0.02,6.78,0.08,-0.78,0.34,
17:25:25:336,-0.15,-0.03,4.97,0.08,-0.78,0.34,
17:25:25:340,0.13,-0.10,2.52,0.08,-0.78,0.34,
17:25:25:341,0.13,-0.10,2.52,0.22,-0.74,0.35,
17:25:25:344,0.41,-0.24,0.71,0.22,-0.74,0.35,
17:25:25:345,0.41,-0.24,0.71,0.24,-0.62,0.33,
17:25:25:350,0.41,-0.24,0.71,0.18,-0.44,0.31,
17:25:25:351,0.48,-0.28,-0.26,0.18,-0.44,0.31,
17:25:25:404,0.48,-0.28,-0.26,0.07,-0.24,0.27,
17:25:25:408,0.99,-1.00,-0.62,0.07,-0.24,0.27,
17:25:25:412,0.99,-1.21,-0.29,0.07,-0.24,0.27,
17:25:25:413,0.99,-1.21,-0.29,-0.04,-0.01,0.20,
17:25:25:416,0.99,-1.21,-0.29,-0.11,0.20,0.13,
17:25:25:418,0.63,-1.08,0.22,-0.11,0.20,0.13,
17:25:25:419,0.63,-1.08,0.22,-0.14,0.40,0.09,
17:25:25:420,0.28,-0.87,0.84,-0.14,0.40,0.09,
17:25:25:421,0.28,-0.87,0.84,-0.13,0.56,0.06,
17:25:25:422,0.01,-0.69,1.16,-0.13,0.56,0.06,
17:25:25:423,-0.15,-0.57,1.16,-0.13,0.56,0.06,
17:25:25:430,-0.15,-0.57,1.16,-0.10,0.69,0.05,
17:25:25:431,-0.27,-0.49,1.02,-0.10,0.69,0.05,
17:25:25:437,-0.27,-0.49,1.02,-0.06,0.79,0.04,
17:25:25:437,-0.27,-0.49,1.02,-0.02,0.86,0.05,
17:25:25:443,-0.36,-0.57,0.85,-0.02,0.86,0.05,
17:25:25:445,-0.36,-0.57,0.85,0.01,0.90,0.07,
17:25:25:446,-0.40,-0.63,0.57,0.01,0.90,0.07,
17:25:25:446,-0.40,-0.63,0.57,0.03,0.92,0.09,
17:25:25:447,-0.26,-0.67,0.49,0.03,0.92,0.09,
17:25:25:448,-0.26,-0.67,0.49,0.04,0.89,0.10,
17:25:25:448,-0.01,-0.72,0.34,0.04,0.89,0.10,
17:25:25:449,0.20,-0.69,0.21,0.04,0.89,0.10,
17:25:25:450,0.20,-0.69,0.21,0.04,0.83,0.10,
17:25:25:450,0.20,-0.69,0.21,0.05,0.75,0.09,
17:25:25:451,0.40,-0.66,0.34,0.05,0.75,0.09,
17:25:25:451,0.40,-0.66,0.34,0.05,0.64,0.07,
17:25:25:453,0.48,-0.64,0.61,0.05,0.64,0.07,
17:25:25:454,0.48,-0.64,0.61,0.05,0.49,0.05,
17:25:25:455,0.31,-0.56,0.89,0.05,0.49,0.05,
17:25:25:456,-0.03,-0.46,0.88,0.05,0.49,0.05,
17:25:25:456,-0.03,-0.46,0.88,0.06,0.33,0.05,
17:25:25:457,-0.03,-0.46,0.88,0.08,0.19,0.06,
17:25:25:457,-0.35,-0.34,0.77,0.08,0.19,0.06,
17:25:25:458,-0.53,-0.26,0.63,0.08,0.19,0.06,
17:25:25:458,-0.53,-0.26,0.63,0.09,0.08,0.09,
17:25:25:459,-0.53,-0.26,0.63,0.11,-0.01,0.13,
17:25:25:460,-0.66,-0.26,0.45,0.11,-0.01,0.13,
17:25:25:461,-0.66,-0.26,0.45,0.11,-0.08,0.18,
17:25:25:462,-0.74,-0.30,0.20,0.11,-0.08,0.18,
17:25:25:462,-0.74,-0.30,0.20,0.11,-0.11,0.23,
17:25:25:463,-0.67,-0.29,-0.11,0.11,-0.11,0.23,
17:25:25:463,-0.53,-0.31,-0.39,0.11,-0.11,0.23,
17:25:25:464,-0.53,-0.31,-0.39,0.11,-0.10,0.27,
17:25:25:464,-0.53,-0.31,-0.39,0.11,-0.05,0.30,
17:25:25:465,-0.41,-0.31,-0.37,0.11,-0.05,0.30,
17:25:25:467,-0.27,-0.39,-0.15,0.11,-0.05,0.30,
17:25:25:467,-0.27,-0.39,-0.15,0.11,-0.01,0.32,
17:25:25:470,-0.09,-0.40,-0.06,0.11,-0.01,0.32,
17:25:25:471,-0.09,-0.40,-0.06,0.12,0.03,0.33,
17:25:25:475,0.26,-0.43,-0.14,0.12,0.03,0.33,
17:25:25:476,0.26,-0.43,-0.14,0.15,0.08,0.33,
17:25:25:480,0.26,-0.43,-0.14,0.18,0.13,0.30,
17:25:25:481,0.57,-0.52,-0.10,0.18,0.13,0.30,
17:25:25:487,0.93,-0.64,0.04,0.18,0.13,0.30,
17:25:25:488,0.93,-0.64,0.04,0.22,0.16,0.26,
17:25:25:489,0.93,-0.64,0.04,0.26,0.18,0.19,
17:25:25:490,1.15,-0.68,-0.20,0.26,0.18,0.19,
17:25:25:495,1.15,-0.68,-0.20,0.30,0.20,0.11,
17:25:25:495,1.25,-0.69,-0.46,0.30,0.20,0.11,
17:25:25:500,1.19,-0.62,-0.74,0.30,0.20,0.11,
17:25:25:500,1.19,-0.62,-0.74,0.32,0.22,0.03,
17:25:25:507,1.19,-0.62,-0.74,0.32,0.23,-0.05,
17:25:25:507,0.95,-0.58,-1.04,0.32,0.23,-0.05,
17:25:25:509,0.95,-0.58,-1.04,0.30,0.24,-0.10,
17:25:25:510,0.46,-0.62,-1.28,0.30,0.24,-0.10,
17:25:25:514,0.46,-0.62,-1.28,0.26,0.25,-0.13,
17:25:25:515,-0.02,-0.62,-1.33,0.26,0.25,-0.13,
17:25:25:519,-0.02,-0.62,-1.33,0.21,0.23,-0.14,
17:25:25:520,-0.34,-0.59,-1.23,0.21,0.23,-0.14,
17:25:25:524,-0.34,-0.59,-1.23,0.16,0.19,-0.13,
17:25:25:525,-0.59,-0.52,-1.11,0.16,0.19,-0.13,
17:25:25:529,-0.59,-0.52,-1.11,0.09,0.10,-0.12,
17:25:25:530,-0.77,-0.42,-0.91,0.09,0.10,-0.12,
17:25:25:533,-0.77,-0.42,-0.91,0.03,-0.01,-0.10,
17:25:25:534,-0.85,-0.35,-0.65,0.03,-0.01,-0.10,
17:25:25:538,-0.85,-0.35,-0.65,-0.02,-0.13,-0.07,
17:25:25:539,-0.81,-0.27,-0.33,-0.02,-0.13,-0.07,
17:25:25:543,-0.81,-0.27,-0.33,-0.07,-0.27,-0.05,
17:25:25:544,-0.63,-0.21,0.07,-0.07,-0.27,-0.05,
17:25:25:548,-0.63,-0.21,0.07,-0.10,-0.42,-0.03,
17:25:25:549,-0.42,-0.20,0.43,-0.10,-0.42,-0.03,
17:25:25:554,-0.31,-0.31,0.78,-0.10,-0.42,-0.03,
17:25:25:555,-0.31,-0.31,0.78,-0.12,-0.57,-0.01,
17:25:25:564,-0.35,-0.42,1.06,-0.12,-0.57,-0.01,
17:25:25:565,-0.35,-0.42,1.06,-0.12,-0.71,0.00,
17:25:25:566,-0.43,-0.42,1.25,-0.12,-0.71,0.00,
17:25:25:567,-0.43,-0.42,1.25,-0.10,-0.83,0.02,
17:25:25:569,-0.51,-0.37,1.41,-0.10,-0.83,0.02,
17:25:25:569,-0.51,-0.37,1.41,-0.07,-0.93,0.05,
17:25:25:575,-0.51,-0.37,1.41,-0.03,-1.00,0.08,
17:25:25:575,-0.46,-0.25,1.62,-0.03,-1.00,0.08,
17:25:25:577,-0.46,-0.25,1.62,0.03,-1.05,0.11,
17:25:25:578,-0.34,-0.17,1.77,0.03,-1.05,0.11,
17:25:25:582,-0.10,-0.18,1.93,0.03,-1.05,0.11,
17:25:25:583,-0.10,-0.18,1.93,0.10,-1.09,0.13,
17:25:25:587,-0.10,-0.18,1.93,0.18,-1.11,0.13,
17:25:25:588,0.00,-0.25,2.05,0.18,-1.11,0.13,
17:25:25:591,-0.01,-0.31,2.27,0.18,-1.11,0.13,
17:25:25:592,-0.01,-0.31,2.27,0.27,-1.13,0.13,
17:25:25:631,0.07,-0.27,2.19,0.27,-1.13,0.13,
17:25:25:632,0.07,-0.27,2.19,0.37,-1.16,0.11,
17:25:25:633,0.04,-0.23,1.85,0.37,-1.16,0.11,
17:25:25:636,0.04,-0.23,1.85,0.46,-1.18,0.08,
17:25:25:638,0.04,-0.23,1.85,0.56,-1.16,0.03,
17:25:25:643,-0.25,-0.19,1.58,0.56,-1.16,0.03,
17:25:25:646,-0.25,-0.19,1.58,0.64,-1.11,-0.00,
17:25:25:647,-0.56,-0.03,1.54,0.64,-1.11,-0.00,
17:25:25:648,-0.68,0.10,1.17,0.64,-1.11,-0.00,
17:25:25:648,-0.68,0.10,1.17,0.73,-1.07,-0.03,
17:25:25:655,-0.68,0.10,1.17,0.80,-1.00,-0.05,
17:25:25:656,-0.86,0.19,0.76,0.80,-1.00,-0.05,
17:25:25:657,-0.99,0.25,0.66,0.80,-1.00,-0.05,
17:25:25:657,-0.99,0.25,0.66,0.85,-0.91,-0.07,
17:25:25:658,-0.99,0.25,0.66,0.89,-0.83,-0.09,
17:25:25:658,-0.93,0.29,0.63,0.89,-0.83,-0.09,
17:25:25:659,-0.66,0.31,0.57,0.89,-0.83,-0.09,
17:25:25:660,-0.66,0.31,0.57,0.93,-0.78,-0.10,
17:25:25:661,-0.45,0.36,0.74,0.93,-0.78,-0.10,
17:25:25:662,-0.45,0.36,0.74,0.96,-0.75,-0.14,
17:25:25:662,-0.45,0.36,0.74,0.98,-0.76,-0.18,
17:25:25:663,-0.33,0.41,1.19,0.98,-0.76,-0.18,
17:25:25:664,-0.38,0.36,1.77,0.98,-0.76,-0.18,
17:25:25:664,-0.38,0.36,1.77,1.01,-0.84,-0.22,
17:25:25:665,-0.38,0.36,1.77,1.05,-0.99,-0.25,
17:25:25:665,-0.67,0.16,2.34,1.05,-0.99,-0.25,
17:25:25:666,-0.67,0.16,2.34,1.11,-1.19,-0.26,
17:25:25:666,-0.67,0.16,2.34,1.17,-1.40,-0.23,
17:25:25:666,-1.10,-0.07,2.58,1.17,-1.40,-0.23,
17:25:25:667,-1.45,-0.31,2.58,1.17,-1.40,-0.23,
17:25:25:669,-1.45,-0.31,2.58,1.23,-1.59,-0.18,
17:25:25:669,-1.58,-0.37,2.44,1.23,-1.59,-0.18,
17:25:25:675,-1.48,-0.31,2.21,1.23,-1.59,-0.18,
17:25:25:675,-1.48,-0.31,2.21,1.30,-1.73,-0.12,
17:25:25:679,-1.48,-0.31,2.21,1.37,-1.85,-0.06,
17:25:25:680,-1.19,-0.24,1.99,1.37,-1.85,-0.06,
17:25:25:686,-0.73,-0.18,1.58,1.37,-1.85,-0.06,
17:25:25:687,-0.73,-0.18,1.58,1.43,-1.94,-0.02,
17:25:25:689,-0.73,-0.18,1.58,1.48,-1.98,-0.01,
17:25:25:690,-0.25,-0.32,1.13,1.48,-1.98,-0.01,
17:25:25:693,-0.25,-0.32,1.13,1.51,-1.97,-0.02,
17:25:25:694,0.17,-0.41,0.66,1.51,-1.97,-0.02,
17:25:25:702,0.17,-0.41,0.66,1.53,-1.92,-0.05,
17:25:25:702,0.43,-0.44,0.21,1.53,-1.92,-0.05,
17:25:25:704,0.57,-0.40,-0.23,1.53,-1.92,-0.05,
17:25:25:705,0.57,-0.40,-0.23,1.53,-1.83,-0.10,
17:25:25:708,0.57,-0.40,-0.23,1.52,-1.71,-0.16,
17:25:25:709,0.65,-0.27,-0.54,1.52,-1.71,-0.16,
17:25:25:713,0.65,-0.27,-0.54,1.50,-1.56,-0.24,
17:25:25:714,0.65,-0.15,-0.75,1.50,-1.56,-0.24,
17:25:25:718,0.65,-0.15,-0.75,1.46,-1.41,-0.31,
17:25:25:718,0.64,-0.14,-0.91,1.46,-1.41,-0.31,
17:25:25:723,0.64,-0.14,-0.91,1.42,-1.26,-0.39,
17:25:25:724,0.56,-0.18,-0.97,1.42,-1.26,-0.39,
17:25:25:728,0.56,-0.18,-0.97,1.38,-1.12,-0.46,
17:25:25:728,0.42,-0.18,-0.96,1.38,-1.12,-0.46,
17:25:25:733,0.42,-0.18,-0.96,1.33,-0.99,-0.53,
17:25:25:733,0.20,-0.17,-0.99,1.33,-0.99,-0.53,
17:25:25:737,0.20,-0.17,-0.99,1.28,-0.85,-0.58,
17:25:25:738,-0.09,-0.18,-1.03,1.28,-0.85,-0.58,
17:25:25:742,-0.09,-0.18,-1.03,1.24,-0.70,-0.59,
17:25:25:743,-0.62,0.08,-0.94,1.24,-0.70,-0.59,
17:25:25:747,-0.62,0.08,-0.94,1.20,-0.57,-0.57,
17:25:25:748,-0.93,0.22,-0.86,1.20,-0.57,-0.57,
17:25:25:752,-0.95,0.23,-0.65,1.20,-0.57,-0.57,
17:25:25:753,-0.95,0.23,-0.65,1.18,-0.45,-0.54,
17:25:25:758,-0.95,0.23,-0.65,1.15,-0.39,-0.50,
17:25:25:759,-1.00,0.34,-0.67,1.15,-0.39,-0.50,
17:25:25:762,-1.00,0.34,-0.67,1.13,-0.33,-0.45,
17:25:25:763,-0.99,0.33,-0.50,1.13,-0.33,-0.45,
17:25:25:767,-0.99,0.33,-0.50,1.10,-0.33,-0.41,
17:25:25:768,-0.93,0.19,-0.67,1.10,-0.33,-0.41,
17:25:25:773,-0.90,0.14,-0.79,1.10,-0.33,-0.41,
17:25:25:774,-0.90,0.14,-0.79,1.06,-0.33,-0.38,
17:25:25:778,-0.96,0.03,-0.89,1.06,-0.33,-0.38,
17:25:25:779,-0.96,0.03,-0.89,1.02,-0.33,-0.36,
17:25:25:782,-0.96,0.03,-0.89,0.95,-0.35,-0.33,
17:25:25:783,-1.18,0.08,-1.14,0.95,-0.35,-0.33,
17:25:25:787,-1.18,0.08,-1.14,0.89,-0.32,-0.29,
17:25:25:788,-1.44,0.08,-1.30,0.89,-0.32,-0.29,
17:25:25:792,-1.54,0.05,-1.38,0.89,-0.32,-0.29,
17:25:25:793,-1.54,0.05,-1.38,0.83,-0.25,-0.25,
17:25:25:797,-1.54,0.05,-1.38,0.76,-0.18,-0.19,
17:25:25:798,-1.60,0.18,-1.49,0.76,-0.18,-0.19,
17:25:25:801,-1.57,0.34,-1.23,0.76,-0.18,-0.19,
17:25:25:802,-1.57,0.34,-1.23,0.71,-0.08,-0.14,
17:25:25:806,-1.27,0.27,-1.06,0.71,-0.08,-0.14,
17:25:25:807,-1.27,0.27,-1.06,0.66,-0.02,-0.09,
17:25:25:811,-1.27,0.27,-1.06,0.61,0.01,-0.05,
17:25:25:812,-0.93,0.18,-0.81,0.61,0.01,-0.05,
17:25:25:817,-0.63,0.20,-0.44,0.61,0.01,-0.05,
17:25:25:818,-0.63,0.20,-0.44,0.57,0.01,-0.03,
17:25:25:821,-0.63,0.20,-0.44,0.53,-0.02,-0.02,
17:25:25:822,-0.54,0.40,-0.30,0.53,-0.02,-0.02,
17:25:25:827,-0.54,0.40,-0.30,0.50,-0.03,-0.00,
17:25:25:828,-0.42,0.59,-0.17,0.50,-0.03,-0.00,
17:25:25:830,-0.42,0.59,-0.17,0.48,-0.05,0.02,
17:25:25:831,-0.14,0.64,0.01,0.48,-0.05,0.02,
17:25:25:836,-0.14,0.64,0.01,0.46,-0.07,0.04,
17:25:25:837,0.27,0.59,0.24,0.46,-0.07,0.04,
17:25:25:881,0.27,0.59,0.24,0.45,-0.09,0.03,
17:25:25:882,0.66,0.46,0.47,0.45,-0.09,0.03,
17:25:25:883,0.66,0.46,0.47,0.45,-0.12,0.01,
17:25:25:883,0.98,0.30,0.55,0.45,-0.12,0.01,
17:25:25:884,1.11,0.20,0.45,0.45,-0.12,0.01,
17:25:25:884,1.11,0.20,0.45,0.46,-0.13,-0.02,
17:25:25:885,1.20,0.15,0.34,0.46,-0.13,-0.02,
17:25:25:885,1.20,0.15,0.34,0.47,-0.12,-0.07,
17:25:25:886,1.20,0.15,0.34,0.47,-0.08,-0.11,
17:25:25:887,1.19,0.12,0.19,0.47,-0.08,-0.11,
17:25:25:888,1.19,0.12,0.19,0.48,-0.03,-0.16,
17:25:25:888,1.03,0.01,0.10,0.48,-0.03,-0.16,
17:25:25:889,1.03,0.01,0.10,0.48,0.03,-0.20,
17:25:25:889,0.86,-0.10,0.04,0.48,0.03,-0.20,
17:25:25:890,0.86,-0.10,0.04,0.48,0.09,-0.24,
17:25:25:890,0.64,-0.17,-0.08,0.48,0.09,-0.24,
17:25:25:891,0.64,-0.17,-0.08,0.48,0.14,-0.27,
17:25:25:891,0.40,-0.18,-0.19,0.48,0.14,-0.27,
17:25:25:892,0.40,-0.18,-0.19,0.48,0.19,-0.30,
17:25:25:893,0.12,-0.19,-0.32,0.48,0.19,-0.30,
17:25:25:893,0.12,-0.19,-0.32,0.48,0.23,-0.31,
17:25:25:894,-0.14,-0.21,-0.46,0.48,0.23,-0.31,
17:25:25:894,-0.14,-0.21,-0.46,0.46,0.27,-0.32,
17:25:25:895,-0.42,-0.17,-0.56,0.46,0.27,-0.32,
17:25:25:897,-0.42,-0.17,-0.56,0.44,0.30,-0.32,
17:25:25:898,-0.68,-0.09,-0.66,0.44,0.30,-0.32,
17:25:25:902,-0.68,-0.09,-0.66,0.42,0.32,-0.30,
17:25:25:903,-0.88,-0.04,-0.80,0.42,0.32,-0.30,
17:25:25:908,-1.02,-0.08,-0.99,0.42,0.32,-0.30,
17:25:25:908,-1.02,-0.08,-0.99,0.39,0.35,-0.27,
17:25:25:912,-1.02,-0.08,-0.99,0.36,0.38,-0.23,
17:25:25:913,-1.04,-0.16,-1.21,0.36,0.38,-0.23,
17:25:25:918,-1.04,-0.16,-1.21,0.32,0.42,-0.20,
17:25:25:919,-0.96,-0.22,-1.34,0.32,0.42,-0.20,
17:25:25:922,-0.96,-0.22,-1.34,0.27,0.46,-0.17,
17:25:25:922,-0.81,-0.18,-1.46,0.27,0.46,-0.17,
17:25:25:927,-0.81,-0.18,-1.46,0.22,0.49,-0.15,
17:25:25:927,-0.72,-0.12,-1.59,0.22,0.49,-0.15,
17:25:25:933,-0.72,-0.12,-1.59,0.16,0.52,-0.13,
17:25:25:933,-0.65,-0.08,-1.61,0.16,0.52,-0.13,
17:25:25:936,-0.59,-0.03,-1.59,0.16,0.52,-0.13,
17:25:25:937,-0.59,-0.03,-1.59,0.10,0.54,-0.11,
17:25:25:943,-0.51,0.00,-1.58,0.10,0.54,-0.11,
17:25:25:945,-0.51,0.00,-1.58,0.04,0.55,-0.08,
17:25:25:948,-0.42,0.03,-1.51,0.04,0.55,-0.08,
17:25:25:949,-0.42,0.03,-1.51,-0.02,0.56,-0.06,
17:25:25:952,-0.28,0.03,-1.41,-0.02,0.56,-0.06,
17:25:25:953,-0.28,0.03,-1.41,-0.09,0.55,-0.04,
17:25:25:957,-0.28,0.03,-1.41,-0.15,0.54,-0.02,
17:25:25:958,-0.14,0.01,-1.23,-0.15,0.54,-0.02,
17:25:25:962,-0.01,0.01,-1.05,-0.15,0.54,-0.02,
17:25:25:963,-0.01,0.01,-1.05,-0.20,0.52,-0.00,
17:25:25:968,0.05,0.03,-0.89,-0.20,0.52,-0.00,
17:25:25:969,0.05,0.03,-0.89,-0.24,0.50,0.01,
17:25:25:971,0.05,0.03,-0.89,-0.28,0.47,0.01,
17:25:25:972,0.10,0.02,-0.75,-0.28,0.47,0.01,
17:25:25:978,0.13,-0.00,-0.59,-0.28,0.47,0.01,
17:25:25:979,0.13,-0.00,-0.59,-0.30,0.44,0.03,
17:25:25:981,0.13,-0.00,-0.59,-0.33,0.41,0.04,
17:25:25:983,0.23,-0.06,-0.48,-0.33,0.41,0.04,
17:25:25:987,0.23,-0.06,-0.48,-0.34,0.38,0.05,
17:25:25:988,0.36,-0.11,-0.38,-0.34,0.38,0.05,
17:25:25:991,0.36,-0.11,-0.38,-0.35,0.36,0.05,
17:25:25:992,0.49,-0.13,-0.27,-0.35,0.36,0.05,
17:25:25:995,0.49,-0.13,-0.27,-0.36,0.35,0.04,
17:25:25:997,0.61,-0.12,-0.22,-0.36,0.35,0.04,
17:25:26:000,0.61,-0.12,-0.22,-0.36,0.34,0.03,
17:25:26:001,0.77,-0.10,-0.15,-0.36,0.34,0.03,
17:25:26:005,0.77,-0.10,-0.15,-0.36,0.34,0.02,
17:25:26:006,0.87,-0.10,-0.04,-0.36,0.34,0.02,
17:25:26:012,0.88,-0.10,0.06,-0.36,0.34,0.02,
17:25:26:014,0.88,-0.10,0.06,-0.35,0.34,-0.00,
17:25:26:015,0.81,-0.10,0.27,-0.35,0.34,-0.00,
17:25:26:017,0.81,-0.10,0.27,-0.33,0.34,-0.02,
17:25:26:020,0.81,-0.10,0.27,-0.31,0.33,-0.05,
17:25:26:021,0.66,-0.12,0.46,-0.31,0.33,-0.05,
17:25:26:025,0.66,-0.12,0.46,-0.28,0.31,-0.07,
17:25:26:025,0.48,-0.20,0.54,-0.28,0.31,-0.07,
17:25:26:029,0.48,-0.20,0.54,-0.24,0.29,-0.09,
17:25:26:030,0.25,-0.27,0.55,-0.24,0.29,-0.09,
17:25:26:034,0.25,-0.27,0.55,-0.20,0.27,-0.09,
17:25:26:035,-0.01,-0.22,0.47,-0.20,0.27,-0.09,
17:25:26:039,-0.01,-0.22,0.47,-0.16,0.26,-0.09,
17:25:26:041,-0.25,-0.15,0.37,-0.16,0.26,-0.09,
17:25:26:044,-0.25,-0.15,0.37,-0.13,0.24,-0.07,
17:25:26:045,-0.41,-0.09,0.25,-0.13,0.24,-0.07,
17:25:26:050,-0.41,-0.04,0.10,-0.13,0.24,-0.07,
17:25:26:052,-0.41,-0.04,0.10,-0.12,0.21,-0.04,
17:25:26:054,-0.41,-0.04,0.10,-0.11,0.18,-0.01,
17:25:26:056,-0.36,-0.04,-0.03,-0.11,0.18,-0.01,
17:25:26:058,-0.36,-0.04,-0.03,-0.11,0.15,0.01,
17:25:26:059,-0.24,-0.04,-0.13,-0.11,0.15,0.01,
17:25:26:063,-0.24,-0.04,-0.13,-0.12,0.12,0.03,
17:25:26:064,-0.10,-0.04,-0.17,-0.12,0.12,0.03,
17:25:26:069,-0.10,-0.04,-0.17,-0.13,0.08,0.04,
17:25:26:070,0.05,-0.06,-0.20,-0.13,0.08,0.04,
17:25:26:073,0.05,-0.06,-0.20,-0.14,0.05,0.04,
17:25:26:074,0.15,-0.07,-0.20,-0.14,0.05,0.04,
17:25:26:079,0.26,-0.07,-0.19,-0.14,0.05,0.04,
17:25:26:080,0.26,-0.07,-0.19,-0.15,0.03,0.04,
17:25:26:122,0.26,-0.07,-0.19,-0.15,0.01,0.04,
17:25:26:122,0.31,-0.10,-0.19,-0.15,0.01,0.04,
17:25:26:123,0.31,-0.10,-0.19,-0.16,-0.01,0.03,
17:25:26:123,0.30,-0.11,-0.19,-0.16,-0.01,0.03,
17:25:26:124,0.30,-0.11,-0.19,-0.16,-0.01,0.03,
17:25:26:124,0.17,-0.17,-0.27,-0.16,-0.01,0.03,
17:25:26:125,0.17,-0.17,-0.27,-0.17,0.01,0.02,
17:25:26:126,0.01,-0.22,-0.39,-0.17,0.01,0.02,
17:25:26:126,0.01,-0.22,-0.39,-0.18,0.04,0.02,
17:25:26:127,-0.11,-0.32,-0.47,-0.18,0.04,0.02,
17:25:26:128,-0.11,-0.32,-0.47,-0.19,0.08,0.02,
17:25:26:128,-0.24,-0.40,-0.54,-0.19,0.08,0.02,
17:25:26:128,-0.24,-0.40,-0.54,-0.21,0.12,0.01,
17:25:26:129,-0.35,-0.43,-0.60,-0.21,0.12,0.01,
17:25:26:130,-0.53,-0.40,-0.63,-0.21,0.12,0.01,
17:25:26:130,-0.53,-0.40,-0.63,-0.23,0.16,0.02,
17:25:26:131,-0.53,-0.40,-0.63,-0.25,0.20,0.03,
17:25:26:132,-0.63,-0.31,-0.59,-0.25,0.20,0.03,
17:25:26:132,-0.63,-0.31,-0.59,-0.28,0.23,0.04,
17:25:26:133,-0.65,-0.24,-0.49,-0.28,0.23,0.04,
17:25:26:133,-0.65,-0.24,-0.49,-0.30,0.24,0.06,
17:25:26:134,-0.63,-0.22,-0.35,-0.30,0.24,0.06,
17:25:26:136,-0.63,-0.22,-0.35,-0.32,0.24,0.07,
17:25:26:137,-0.57,-0.23,-0.26,-0.32,0.24,0.07,
17:25:26:141,-0.57,-0.23,-0.26,-0.33,0.23,0.08,
17:25:26:141,-0.51,-0.23,-0.13,-0.33,0.23,0.08,
17:25:26:145,-0.51,-0.23,-0.13,-0.34,0.22,0.08,
17:25:26:146,-0.47,-0.21,0.01,-0.34,0.22,0.08,
17:25:26:151,-0.45,-0.19,0.09,-0.34,0.22,0.08,
17:25:26:152,-0.45,-0.19,0.09,-0.34,0.19,0.08,
17:25:26:156,-0.45,-0.19,0.09,-0.34,0.17,0.09,
17:25:26:157,-0.41,-0.15,0.11,-0.34,0.17,0.09,
17:25:26:161,-0.41,-0.15,0.11,-0.33,0.16,0.10,
17:25:26:162,-0.43,-0.13,0.15,-0.33,0.16,0.10,
17:25:26:164,-0.39,-0.13,0.22,-0.33,0.16,0.10,
17:25:26:165,-0.39,-0.13,0.22,-0.33,0.15,0.11,
17:25:26:171,-0.39,-0.13,0.22,-0.32,0.15,0.11,
17:25:26:171,-0.33,-0.09,0.32,-0.32,0.15,0.11,
17:25:26:174,-0.33,-0.09,0.32,-0.30,0.13,0.12,
17:25:26:175,-0.20,-0.06,0.42,-0.30,0.13,0.12,
17:25:26:179,-0.20,-0.06,0.42,-0.28,0.11,0.12,
17:25:26:179,-0.07,-0.06,0.50,-0.28,0.11,0.12,
17:25:26:185,0.03,-0.10,0.51,-0.28,0.11,0.12,
17:25:26:185,0.03,-0.10,0.51,-0.26,0.07,0.11,
17:25:26:189,0.03,-0.10,0.51,-0.23,0.04,0.09,
17:25:26:190,0.08,-0.09,0.51,-0.23,0.04,0.09,
17:25:26:194,0.08,-0.09,0.51,-0.20,0.01,0.08,
17:25:26:195,0.08,-0.11,0.47,-0.20,0.01,0.08,
17:25:26:200,0.08,-0.11,0.47,-0.18,-0.01,0.07,
17:25:26:200,0.01,-0.12,0.45,-0.18,-0.01,0.07,
17:25:26:204,0.01,-0.12,0.45,-0.15,-0.03,0.06,
17:25:26:204,-0.11,-0.13,0.36,-0.15,-0.03,0.06,
17:25:26:208,-0.11,-0.13,0.36,-0.13,-0.05,0.06,
17:25:26:209,-0.29,-0.15,0.27,-0.13,-0.05,0.06,
17:25:26:213,-0.52,-0.22,0.09,-0.13,-0.05,0.06,
17:25:26:214,-0.52,-0.22,0.09,-0.11,-0.05,0.06,
17:25:26:218,-0.77,-0.36,-0.19,-0.11,-0.05,0.06,
17:25:26:219,-0.77,-0.36,-0.19,-0.10,-0.03,0.06,
17:25:26:223,-0.98,-0.40,-0.46,-0.10,-0.03,0.06,
17:25:26:225,-0.98,-0.40,-0.46,-0.10,0.00,0.06,
17:25:26:228,-0.98,-0.40,-0.46,-0.10,0.04,0.08,
17:25:26:229,-1.17,-0.37,-0.69,-0.10,0.04,0.08,
17:25:26:233,-1.35,-0.30,-0.99,-0.10,0.04,0.08,
17:25:26:234,-1.35,-0.30,-0.99,-0.11,0.08,0.10,
17:25:26:238,-1.50,-0.21,-1.31,-0.11,0.08,0.10,
17:25:26:239,-1.50,-0.21,-1.31,-0.14,0.11,0.12,
17:25:26:243,-1.50,-0.21,-1.31,-0.18,0.16,0.16,
17:25:26:244,-1.61,-0.20,-1.50,-0.18,0.16,0.16,
17:25:26:248,-1.61,-0.20,-1.50,-0.24,0.20,0.20,
17:25:26:249,-1.65,-0.19,-1.58,-0.24,0.20,0.20,
17:25:26:253,-1.65,-0.19,-1.58,-0.31,0.23,0.24,
17:25:26:254,-1.61,-0.20,-1.57,-0.31,0.23,0.24,
17:25:26:258,-1.55,-0.20,-1.61,-0.31,0.23,0.24,
17:25:26:259,-1.55,-0.20,-1.61,-0.37,0.27,0.28,
17:25:26:262,-1.55,-0.20,-1.61,-0.43,0.31,0.31,
17:25:26:263,-1.52,-0.09,-1.56,-0.43,0.31,0.31,
17:25:26:267,-1.52,-0.09,-1.56,-0.49,0.34,0.35,
17:25:26:268,-1.53,0.04,-1.45,-0.49,0.34,0.35,
17:25:26:272,-1.54,0.16,-1.26,-0.49,0.34,0.35,
17:25:26:273,-1.54,0.16,-1.26,-0.55,0.38,0.38,
17:25:26:277,-1.54,0.16,-1.26,-0.60,0.39,0.42,
17:25:26:278,-1.63,0.27,-1.05,-0.60,0.39,0.42,
17:25:26:282,-1.63,0.27,-1.05,-0.65,0.40,0.47,
17:25:26:284,-1.65,0.36,-0.77,-0.65,0.40,0.47,
17:25:26:287,-1.65,0.40,-0.51,-0.65,0.40,0.47,
17:25:26:288,-1.65,0.40,-0.51,-0.69,0.39,0.51,
17:25:26:291,-1.65,0.40,-0.51,-0.72,0.36,0.56,
17:25:26:292,-1.67,0.47,-0.27,-0.72,0.36,0.56,
17:25:26:296,-1.67,0.47,-0.27,-0.74,0.31,0.60,
17:25:26:298,-1.67,0.52,-0.03,-0.74,0.31,0.60,
17:25:26:301,-1.67,0.52,-0.03,-0.75,0.23,0.65,
17:25:26:302,-1.59,0.50,0.16,-0.75,0.23,0.65,
17:25:26:306,-1.59,0.50,0.16,-0.76,0.13,0.70,
17:25:26:308,-1.55,0.45,0.32,-0.76,0.13,0.70,
17:25:26:311,-1.55,0.45,0.32,-0.77,0.01,0.75,
17:25:26:312,-1.54,0.44,0.30,-0.77,0.01,0.75,
17:25:26:316,-1.60,0.54,0.20,-0.77,0.01,0.75,
17:25:26:317,-1.60,0.54,0.20,-0.78,-0.10,0.81,
17:25:26:321,-1.60,0.54,0.20,-0.80,-0.21,0.87,
17:25:26:322,-1.60,0.70,0.03,-0.80,-0.21,0.87,
17:25:26:364,-1.60,0.70,0.03,-0.83,-0.31,0.93,
17:25:26:364,-1.54,0.76,-0.16,-0.83,-0.31,0.93,
17:25:26:365,-1.49,0.65,-0.44,-0.83,-0.31,0.93,
17:25:26:365,-1.49,0.65,-0.44,-0.87,-0.39,0.98,
17:25:26:366,-1.49,0.65,-0.44,-0.91,-0.43,1.04,
17:25:26:366,-1.54,0.51,-0.66,-0.91,-0.43,1.04,
17:25:26:367,-1.66,0.44,-0.86,-0.91,-0.43,1.04,
17:25:26:368,-1.66,0.44,-0.86,-0.97,-0.44,1.08,
17:25:26:368,-1.87,0.44,-0.98,-0.97,-0.44,1.08,
17:25:26:369,-1.87,0.44,-0.98,-1.03,-0.42,1.13,
17:25:26:369,-1.87,0.44,-0.98,-1.08,-0.35,1.17,
17:25:26:370,-2.17,0.59,-1.11,-1.08,-0.35,1.17,
17:25:26:370,-2.17,0.59,-1.11,-1.13,-0.27,1.22,
17:25:26:371,-2.35,0.71,-1.15,-1.13,-0.27,1.22,
17:25:26:371,-2.35,0.71,-1.15,-1.18,-0.18,1.28,
17:25:26:372,-2.43,0.78,-1.18,-1.18,-0.18,1.28,
17:25:26:373,-2.43,0.78,-1.18,-1.23,-0.08,1.35,
17:25:26:373,-2.56,0.80,-1.24,-1.23,-0.08,1.35,
17:25:26:374,-2.56,0.80,-1.24,-1.28,0.03,1.41,
17:25:26:374,-2.58,0.78,-1.20,-1.28,0.03,1.41,
17:25:26:375,-2.58,0.78,-1.20,-1.33,0.13,1.48,
17:25:26:375,-2.47,0.85,-1.11,-1.33,0.13,1.48,
17:25:26:378,-2.47,0.85,-1.11,-1.38,0.22,1.54,
17:25:26:379,-2.13,0.81,-1.00,-1.38,0.22,1.54,
17:25:26:383,-1.80,0.85,-0.90,-1.38,0.22,1.54,
17:25:26:384,-1.80,0.85,-0.90,-1.42,0.28,1.59,
17:25:26:388,-1.44,0.86,-0.80,-1.42,0.28,1.59,
17:25:26:389,-1.44,0.86,-0.80,-1.47,0.32,1.63,
17:25:26:392,-1.01,0.80,-0.51,-1.47,0.32,1.63,
17:25:26:393,-1.01,0.80,-0.51,-1.51,0.32,1.65,
17:25:26:398,-1.01,0.80,-0.51,-1.56,0.29,1.66,
17:25:26:398,-0.68,0.80,-0.07,-1.56,0.29,1.66,
17:25:26:402,-0.68,0.80,-0.07,-1.61,0.21,1.66,
17:25:26:403,-0.45,0.83,0.46,-1.61,0.21,1.66,
17:25:26:408,-0.45,0.83,0.46,-1.64,0.10,1.66,
17:25:26:409,-0.17,0.81,0.96,-1.64,0.10,1.66,
17:25:26:412,0.16,0.78,1.46,-1.64,0.10,1.66,
17:25:26:412,0.16,0.78,1.46,-1.65,-0.05,1.65,
17:25:26:418,0.16,0.78,1.46,-1.65,-0.22,1.63,
17:25:26:419,0.49,0.69,1.90,-1.65,-0.22,1.63,
17:25:26:424,0.93,0.52,2.26,-1.65,-0.22,1.63,
17:25:26:425,0.93,0.52,2.26,-1.62,-0.40,1.59,
17:25:26:427,0.93,0.52,2.26,-1.57,-0.57,1.52,
17:25:26:428,1.16,0.53,2.31,-1.57,-0.57,1.52,
17:25:26:432,1.16,0.53,2.31,-1.50,-0.71,1.45,
17:25:26:432,1.32,0.62,2.16,-1.50,-0.71,1.45,
17:25:26:438,1.32,0.62,2.16,-1.42,-0.79,1.37,
17:25:26:439,1.28,0.88,1.91,-1.42,-0.79,1.37,
17:25:26:442,1.28,0.88,1.91,-1.34,-0.82,1.30,
17:25:26:442,1.21,1.14,1.62,-1.34,-0.82,1.30,
17:25:26:448,1.21,1.14,1.62,-1.26,-0.83,1.23,
17:25:26:449,1.37,1.11,1.15,-1.26,-0.83,1.23,
17:25:26:452,1.37,1.11,1.15,-1.20,-0.81,1.16,
17:25:26:452,1.51,1.00,0.56,-1.20,-0.81,1.16,
17:25:26:457,1.60,0.89,0.02,-1.20,-0.81,1.16,
17:25:26:458,1.60,0.89,0.02,-1.16,-0.78,1.08,
17:25:26:461,1.60,0.89,0.02,-1.16,-0.75,1.00,
17:25:26:462,1.66,0.83,-0.46,-1.16,-0.75,1.00,
17:25:26:468,1.66,0.83,-0.46,-1.18,-0.70,0.92,
17:25:26:470,1.84,0.71,-0.67,-1.18,-0.70,0.92,
17:25:26:471,1.84,0.71,-0.67,-1.22,-0.68,0.83,
17:25:26:472,1.95,0.71,-0.82,-1.22,-0.68,0.83,
17:25:26:478,1.95,0.71,-0.82,-1.28,-0.69,0.76,
17:25:26:480,2.26,0.58,-0.63,-1.28,-0.69,0.76,
17:25:26:481,2.77,0.40,-0.63,-1.28,-0.69,0.76,
17:25:26:482,2.77,0.40,-0.63,-1.34,-0.74,0.67,
17:25:26:487,2.77,0.40,-0.63,-1.40,-0.79,0.58,
17:25:26:488,3.54,0.10,-1.14,-1.40,-0.79,0.58,
17:25:26:490,3.54,0.10,-1.14,-1.48,-0.81,0.45,
17:25:26:492,4.53,-0.54,-1.37,-1.48,-0.81,0.45,
17:25:26:495,4.53,-0.54,-1.37,-1.57,-0.80,0.29,
17:25:26:496,5.61,-1.21,-1.32,-1.57,-0.80,0.29,
17:25:26:500,5.61,-1.21,-1.32,-1.68,-0.81,0.09,
17:25:26:502,6.45,-1.59,-1.08,-1.68,-0.81,0.09,
17:25:26:505,6.45,-1.59,-1.08,-1.80,-0.83,-0.12,
17:25:26:506,6.59,-1.64,-1.11,-1.80,-0.83,-0.12,
17:25:26:510,6.59,-1.64,-1.11,-1.93,-0.84,-0.31,
17:25:26:511,6.62,-1.83,-0.76,-1.93,-0.84,-0.31,
17:25:26:517,6.76,-2.11,-0.91,-1.93,-0.84,-0.31,
17:25:26:518,6.76,-2.11,-0.91,-2.02,-0.82,-0.48,
17:25:26:520,6.76,-2.11,-0.91,-2.07,-0.71,-0.65,
17:25:26:521,6.90,-2.34,-0.75,-2.07,-0.71,-0.65,
17:25:26:525,6.79,-2.74,0.13,-2.07,-0.71,-0.65,
17:25:26:526,6.79,-2.74,0.13,-2.08,-0.57,-0.82,
17:25:26:533,6.79,-2.74,0.13,-2.00,-0.50,-0.99,
17:25:26:534,6.34,-4.87,3.69,-2.00,-0.50,-0.99,
17:25:26:535,6.34,-4.87,3.69,-1.73,-0.56,-1.12,
17:25:26:536,3.48,-8.88,10.78,-1.73,-0.56,-1.12,
17:25:26:539,3.48,-8.88,10.78,-1.17,-0.81,-1.09,
17:25:26:540,-0.54,-10.18,15.89,-1.17,-0.81,-1.09,
17:25:26:544,-0.54,-10.18,15.89,-0.45,-1.11,-0.83,
17:25:26:545,-4.95,-7.63,12.19,-0.45,-1.11,-0.83,
17:25:26:549,-4.76,-2.97,5.67,-0.45,-1.11,-0.83,
17:25:26:550,-4.76,-2.97,5.67,0.01,-1.17,-0.36,
17:25:26:553,-4.76,-2.97,5.67,0.03,-1.10,0.09,
17:25:26:554,0.29,0.37,-1.25,0.03,-1.10,0.09,
17:25:26:559,6.08,0.70,-5.15,0.03,-1.10,0.09,
17:25:26:560,6.08,0.70,-5.15,-0.35,-1.03,0.24,
17:25:26:563,6.08,0.70,-5.15,-0.90,-0.98,0.04,
17:25:26:564,10.27,-1.14,-4.99,-0.90,-0.98,0.04,
17:25:26:606,10.27,-1.14,-4.99,-1.33,-0.97,-0.42,
17:25:26:607,11.40,-3.29,-1.21,-1.33,-0.97,-0.42,
17:25:26:608,11.40,-3.29,-1.21,-1.49,-1.05,-0.93,
17:25:26:608,9.97,-4.32,2.35,-1.49,-1.05,-0.93,
17:25:26:609,9.97,-4.32,2.35,-1.43,-1.15,-1.31,
17:25:26:609,6.80,-4.55,4.24,-1.43,-1.15,-1.31,
17:25:26:610,3.67,-4.84,4.50,-1.43,-1.15,-1.31,
17:25:26:611,3.67,-4.84,4.50,-1.21,-1.17,-1.49,
17:25:26:612,3.67,-4.84,4.50,-0.92,-1.00,-1.49,
17:25:26:613,1.97,-4.73,3.20,-0.92,-1.00,-1.49,
17:25:26:613,1.97,-4.73,3.20,-0.66,-0.72,-1.42,
17:25:26:614,2.07,-4.56,1.41,-0.66,-0.72,-1.42,
17:25:26:614,2.07,-4.56,1.41,-0.49,-0.45,-1.39,
17:25:26:615,3.39,-4.93,-0.11,-0.49,-0.45,-1.39,
17:25:26:616,3.39,-4.93,-0.11,-0.41,-0.27,-1.45,
17:25:26:617,3.48,-5.11,-1.15,-0.41,-0.27,-1.45,
17:25:26:618,3.48,-5.11,-1.15,-0.39,-0.13,-1.54,
17:25:26:618,2.59,-5.20,-2.07,-0.39,-0.13,-1.54,
17:25:26:619,2.59,-5.20,-2.07,-0.39,0.01,-1.59,
17:25:26:619,1.19,-5.10,-3.12,-0.39,0.01,-1.59,
17:25:26:619,-0.24,-4.73,-4.01,-0.39,0.01,-1.59,
17:25:26:621,-0.24,-4.73,-4.01,-0.42,0.15,-1.59,
17:25:26:623,-0.24,-4.73,-4.01,-0.45,0.29,-1.55,
17:25:26:624,-0.87,-4.36,-4.50,-0.45,0.29,-1.55,
17:25:26:626,-0.87,-4.36,-4.50,-0.48,0.41,-1.51,
17:25:26:627,-0.39,-4.18,-5.06,-0.48,0.41,-1.51,
17:25:26:630,-0.39,-4.18,-5.06,-0.52,0.51,-1.51,
17:25:26:631,0.60,-3.67,-5.04,-0.52,0.51,-1.51,
17:25:26:635,1.56,-3.27,-4.51,-0.52,0.51,-1.51,
17:25:26:636,1.56,-3.27,-4.51,-0.56,0.58,-1.56,
17:25:26:642,2.92,-2.93,-3.56,-0.56,0.58,-1.56,
17:25:26:642,2.92,-2.93,-3.56,-0.59,0.58,-1.66,
17:25:26:647,4.08,-2.80,-2.74,-0.59,0.58,-1.66,
17:25:26:647,4.08,-2.80,-2.74,-0.63,0.46,-1.80,
17:25:26:651,5.49,-2.59,-1.79,-0.63,0.46,-1.80,
17:25:26:652,5.49,-2.59,-1.79,-0.66,0.27,-1.96,
17:25:26:656,5.49,-2.59,-1.79,-0.67,0.04,-2.15,
17:25:26:657,7.93,-1.87,-0.67,-0.67,0.04,-2.15,
17:25:26:659,7.93,-1.87,-0.67,-0.64,-0.19,-2.43,
17:25:26:660,10.39,-0.98,0.44,-0.64,-0.19,-2.43,
17:25:26:667,10.39,-0.98,0.44,-0.55,-0.37,-2.79,
17:25:26:668,11.45,-0.32,2.05,-0.55,-0.37,-2.79,
17:25:26:670,11.45,-0.32,2.05,-0.37,-0.48,-3.14,
17:25:26:671,6.00,1.19,5.69,-0.37,-0.48,-3.14,
17:25:26:675,6.00,1.19,5.69,-0.04,-0.56,-3.29,
17:25:26:675,-0.87,2.39,9.07,-0.04,-0.56,-3.29,
17:25:26:679,-0.87,2.39,9.07,0.41,-0.67,-3.17,
17:25:26:680,-10.76,3.79,10.68,0.41,-0.67,-3.17,
17:25:26:684,-18.13,4.47,8.06,0.41,-0.67,-3.17,
17:25:26:685,-18.13,4.47,8.06,0.88,-0.76,-2.76,
17:25:26:689,-18.13,4.47,8.06,1.22,-0.71,-2.22,
17:25:26:690,-20.91,5.01,2.45,1.22,-0.71,-2.22,
17:25:26:694,-20.91,5.01,2.45,1.38,-0.35,-1.70,
17:25:26:695,-22.33,5.44,-2.04,1.38,-0.35,-1.70,
17:25:26:698,-22.33,5.44,-2.04,1.47,0.32,-1.23,
17:25:26:699,-23.32,4.95,-3.60,1.47,0.32,-1.23,
17:25:26:704,-23.32,4.95,-3.60,1.59,1.17,-0.78,
17:25:26:705,-23.40,4.25,-3.64,1.59,1.17,-0.78,
17:25:26:708,-23.40,4.25,-3.64,1.74,2.06,-0.34,
17:25:26:710,-21.52,4.39,-4.06,1.74,2.06,-0.34,
17:25:26:714,-21.52,4.39,-4.06,1.82,2.87,0.03,
17:25:26:715,-17.81,4.09,-5.10,1.82,2.87,0.03,
17:25:26:718,-14.26,3.88,-5.79,1.82,2.87,0.03,
17:25:26:719,-14.26,3.88,-5.79,1.76,3.56,0.29,
17:25:26:723,-14.26,3.88,-5.79,1.56,4.06,0.49,
17:25:26:724,-10.42,3.30,-7.45,1.56,4.06,0.49,
17:25:26:728,-10.42,3.30,-7.45,1.16,4.07,0.59,
17:25:26:729,-3.06,1.38,-8.72,1.16,4.07,0.59,
17:25:26:733,-3.06,1.38,-8.72,0.67,3.72,0.50,
17:25:26:734,4.98,-0.27,-7.85,0.67,3.72,0.50,
17:25:26:738,8.35,0.44,-1.33,0.67,3.72,0.50,
17:25:26:739,8.35,0.44,-1.33,0.26,3.21,0.24,
17:25:26:743,8.35,0.44,-1.33,0.13,2.33,0.00,
17:25:26:744,8.93,1.62,2.94,0.13,2.33,0.00,
17:25:26:748,6.88,3.62,9.12,0.13,2.33,0.00,
17:25:26:749,6.88,3.62,9.12,0.19,1.49,-0.17,
17:25:26:753,6.88,3.62,9.12,0.34,0.55,-0.30,
17:25:26:754,5.84,3.37,7.12,0.34,0.55,-0.30,
17:25:26:758,5.84,3.37,7.12,0.39,-0.29,-0.43,
17:25:26:759,4.38,2.54,4.03,0.39,-0.29,-0.43,
17:25:26:762,4.38,2.54,4.03,0.28,-0.94,-0.57,
17:25:26:763,1.84,3.03,1.68,0.28,-0.94,-0.57,
17:25:26:767,1.84,3.03,1.68,0.15,-1.18,-0.66,
17:25:26:769,0.49,3.32,0.50,0.15,-1.18,-0.66,
17:25:26:773,-0.68,3.85,1.22,0.15,-1.18,-0.66,
17:25:26:774,-0.68,3.85,1.22,0.08,-1.16,-0.73,
17:25:26:777,-1.39,4.14,2.22,0.08,-1.16,-0.73,
17:25:26:778,-1.39,4.14,2.22,0.09,-1.00,-0.80,
17:25:26:782,-1.19,4.14,2.31,0.09,-1.00,-0.80,
17:25:26:783,-1.19,4.14,2.31,0.17,-0.77,-0.83,
17:25:26:786,-1.19,4.14,2.31,0.25,-0.52,-0.87,
17:25:26:787,0.08,3.50,1.08,0.25,-0.52,-0.87,
17:25:26:792,-0.00,4.19,2.02,0.25,-0.52,-0.87,
17:25:26:793,-0.00,4.19,2.02,0.32,-0.21,-0.95,
17:25:26:797,0.12,4.56,4.10,0.32,-0.21,-0.95,
17:25:26:798,0.12,4.56,4.10,0.45,0.03,-0.99,
17:25:26:801,1.13,3.78,3.72,0.45,0.03,-0.99,
17:25:26:802,1.13,3.78,3.72,0.67,0.20,-1.04,
17:25:26:806,1.13,3.78,3.72,0.87,0.41,-1.12,
17:25:26:807,0.38,3.94,3.21,0.87,0.41,-1.12,
17:25:26:857,-2.98,-0.13,-3.44,0.87,0.41,-1.12,
17:25:26:857,-2.98,-0.13,-3.44,1.03,0.56,-1.15,
17:25:26:858,-5.86,-6.10,-19.93,1.03,0.56,-1.15,
17:25:26:859,-5.86,-6.10,-19.93,0.79,0.60,-0.98,
17:25:26:859,-5.86,-6.10,-19.93,0.11,0.61,-0.81,
17:25:26:860,-0.72,-0.96,-17.23,0.11,0.61,-0.81,
17:25:26:860,-0.72,-0.96,-17.23,-0.38,0.85,-0.83,
17:25:26:861,-1.55,1.42,-7.60,-0.38,0.85,-0.83,
17:25:26:861,-1.55,1.42,-7.60,-0.42,1.34,-0.76,
17:25:26:862,-3.19,-1.87,1.94,-0.42,1.34,-0.76,
17:25:26:862,-3.19,-1.87,1.94,-0.24,1.84,-0.61,
17:25:26:863,-0.58,-2.87,4.68,-0.24,1.84,-0.61,
17:25:26:863,-0.58,-2.87,4.68,-0.08,2.16,-0.57,
17:25:26:864,0.56,-2.15,8.63,-0.08,2.16,-0.57,
17:25:26:865,0.56,-2.15,8.63,0.05,2.18,-0.57,
17:25:26:865,1.94,-1.95,5.78,0.05,2.18,-0.57,
17:25:26:866,1.96,-2.57,4.06,0.05,2.18,-0.57,
17:25:26:866,1.96,-2.57,4.06,0.00,1.96,-0.56,
17:25:26:868,1.96,-2.57,4.06,-0.11,1.56,-0.53,
17:25:26:868,1.72,-3.41,4.03,-0.11,1.56,-0.53,
17:25:26:869,2.64,-4.18,2.90,-0.11,1.56,-0.53,
17:25:26:870,2.64,-4.18,2.90,-0.19,1.06,-0.46,
17:25:26:870,2.64,-4.18,2.90,-0.28,0.57,-0.41,
17:25:26:871,3.64,-4.34,2.10,-0.28,0.57,-0.41,
17:25:26:871,3.34,-4.01,2.30,-0.28,0.57,-0.41,
17:25:26:872,3.34,-4.01,2.30,-0.40,0.13,-0.41,
17:25:26:873,2.98,-3.93,1.95,-0.40,0.13,-0.41,
17:25:26:873,2.98,-3.93,1.95,-0.50,-0.22,-0.43,
17:25:26:878,1.81,-3.59,0.76,-0.50,-0.22,-0.43,
17:25:26:879,1.81,-3.59,0.76,-0.59,-0.45,-0.49,
17:25:26:883,1.13,-2.69,-0.52,-0.59,-0.45,-0.49,
17:25:26:884,1.13,-2.69,-0.52,-0.66,-0.51,-0.53,
17:25:26:890,1.26,-2.17,-2.09,-0.66,-0.51,-0.53,
17:25:26:891,1.26,-2.17,-2.09,-0.73,-0.48,-0.56,
17:25:26:892,1.26,-2.17,-2.09,-0.84,-0.41,-0.61,
17:25:26:893,3.64,-3.05,-1.98,-0.84,-0.41,-0.61,
17:25:26:897,3.64,-3.05,-1.98,-1.00,-0.45,-0.78,
17:25:26:898,3.17,-3.71,-1.76,-1.00,-0.45,-0.78,
17:25:26:902,3.17,-3.71,-1.76,-1.13,-0.46,-0.91,
17:25:26:903,0.40,-4.04,0.89,-1.13,-0.46,-0.91,
17:25:26:908,0.89,-4.05,1.32,-1.13,-0.46,-0.91,
17:25:26:909,0.89,-4.05,1.32,-1.16,-0.47,-0.91,
17:25:26:912,0.89,-4.05,1.32,-1.17,-0.49,-0.94,
17:25:26:913,1.59,-3.57,1.46,-1.17,-0.49,-0.94,
17:25:26:917,1.25,-3.49,1.75,-1.17,-0.49,-0.94,
17:25:26:917,1.25,-3.49,1.75,-1.17,-0.54,-1.00,
17:25:26:922,1.74,-3.16,0.81,-1.17,-0.54,-1.00,
17:25:26:923,1.74,-3.16,0.81,-1.13,-0.51,-1.05,
17:25:26:929,2.85,-2.28,0.93,-1.13,-0.51,-1.05,
17:25:26:930,2.85,-2.28,0.93,-1.14,-0.43,-1.13,
17:25:26:932,2.13,-2.66,2.70,-1.14,-0.43,-1.13,
17:25:26:933,2.13,-2.66,2.70,-1.15,-0.37,-1.22,
17:25:26:938,2.13,-2.66,2.70,-1.08,-0.35,-1.27,
17:25:26:939,2.39,-2.96,3.35,-1.08,-0.35,-1.27,
17:25:26:942,3.95,-2.96,2.23,-1.08,-0.35,-1.27,
17:25:26:943,3.95,-2.96,2.23,-0.95,-0.40,-1.34,
17:25:26:947,5.82,-2.44,1.16,-0.95,-0.40,-1.34,
17:25:26:948,5.82,-2.44,1.16,-0.84,-0.40,-1.51,
17:25:26:952,6.02,-2.03,2.39,-0.84,-0.40,-1.51,
17:25:26:953,6.02,-2.03,2.39,-0.70,-0.32,-1.74,
17:25:26:957,6.02,-2.03,2.39,-0.53,-0.24,-1.96,
17:25:26:958,4.11,-1.42,1.93,-0.53,-0.24,-1.96,
17:25:26:961,4.11,-1.42,1.93,-0.43,-0.21,-2.08,
17:25:26:962,0.44,-1.28,0.26,-0.43,-0.21,-2.08,
17:25:26:966,-1.30,-0.98,-0.92,-0.43,-0.21,-2.08,
17:25:26:968,-1.30,-0.98,-0.92,-0.39,-0.19,-2.07,
17:25:26:971,-1.30,-0.98,-0.92,-0.39,-0.18,-2.02,
17:25:26:973,-2.27,-0.47,-1.37,-0.39,-0.18,-2.02,
17:25:26:976,-2.27,-0.47,-1.37,-0.32,-0.21,-1.94,
17:25:26:978,-3.45,-0.03,-1.16,-0.32,-0.21,-1.94,
17:25:26:981,-6.14,0.41,0.02,-0.32,-0.21,-1.94,
17:25:26:982,-6.14,0.41,0.02,-0.26,-0.11,-1.83,
17:25:26:986,-6.14,0.41,0.02,-0.15,0.08,-1.65,
17:25:26:987,-7.64,0.45,-1.02,-0.15,0.08,-1.65,
17:25:26:990,-7.64,0.45,-1.02,-0.09,0.25,-1.42,
17:25:26:992,-7.23,0.30,-1.20,-0.09,0.25,-1.42,
17:25:26:995,-7.23,0.30,-1.20,-0.05,0.38,-1.21,
17:25:26:997,-4.82,0.08,-0.30,-0.05,0.38,-1.21,
17:25:27:000,-4.82,0.08,-0.30,0.01,0.49,-1.08,
17:25:27:001,-2.27,-0.24,0.16,0.01,0.49,-1.08,
17:25:27:005,-2.27,-0.24,0.16,0.06,0.49,-1.04,
17:25:27:006,0.40,-0.56,0.36,0.06,0.49,-1.04,
17:25:27:010,0.40,-0.56,0.36,0.09,0.46,-1.05,
17:25:27:012,0.12,-0.39,-0.22,0.09,0.46,-1.05,
17:25:27:015,-0.10,-0.42,0.49,0.09,0.46,-1.05,
17:25:27:016,-0.10,-0.42,0.49,0.10,0.41,-1.03,
17:25:27:020,-0.10,-0.42,0.49,0.12,0.27,-0.99,
17:25:27:021,0.80,-0.29,0.24,0.12,0.27,-0.99,
17:25:27:024,0.80,-0.29,0.24,0.11,0.12,-0.99,
17:25:27:025,1.28,-0.07,-0.12,0.11,0.12,-0.99,
17:25:27:029,1.28,-0.07,-0.12,0.10,0.03,-1.01,
17:25:27:030,0.40,0.47,-0.31,0.10,0.03,-1.01,
17:25:27:034,0.34,0.59,-0.17,0.10,0.03,-1.01,
17:25:27:035,0.34,0.59,-0.17,0.11,0.03,-1.03,
17:25:27:039,0.34,0.59,-0.17,0.12,0.12,-1.06,
17:25:27:040,-0.71,1.13,-0.59,0.12,0.12,-1.06,
17:25:27:044,-0.71,1.13,-0.59,0.12,0.23,-1.05,
17:25:27:045,-1.38,1.66,-0.46,0.12,0.23,-1.05,
17:25:27:048,-1.38,1.66,-0.46,0.12,0.31,-1.02,
17:25:27:049,-1.42,1.68,-0.35,0.12,0.31,-1.02,
17:25:27:100,-1.19,1.82,-0.23,0.12,0.31,-1.02,
17:25:27:101,-1.19,1.82,-0.23,0.13,0.31,-1.00,
17:25:27:102,-1.19,1.82,-0.23,0.15,0.30,-0.99,
17:25:27:102,-1.72,2.50,-0.62,0.15,0.30,-0.99,
17:25:27:103,-1.72,2.50,-0.62,0.14,0.26,-0.96,
17:25:27:103,-1.36,2.89,-0.38,0.14,0.26,-0.96,
17:25:27:104,-1.36,2.89,-0.38,0.14,0.21,-0.96,
17:25:27:104,0.50,2.86,-0.21,0.14,0.21,-0.96,
17:25:27:105,0.50,2.86,-0.21,0.14,0.20,-1.02,
17:25:27:106,1.23,2.73,-0.08,0.14,0.20,-1.02,
17:25:27:106,1.23,2.73,-0.08,0.12,0.18,-1.09,
17:25:27:107,1.06,2.92,0.38,0.12,0.18,-1.09,
17:25:27:107,1.06,2.92,0.38,0.11,0.10,-1.17,
17:25:27:108,2.24,2.97,0.18,0.11,0.10,-1.17,
17:25:27:108,2.24,2.97,0.18,0.09,0.03,-1.27,
17:25:27:109,2.25,2.97,0.48,0.09,0.03,-1.27,
17:25:27:109,2.25,2.97,0.48,0.05,-0.05,-1.39,
17:25:27:110,1.93,3.18,0.63,0.05,-0.05,-1.39,
17:25:27:110,1.93,3.18,0.63,0.02,-0.10,-1.48,
17:25:27:111,0.22,3.34,0.63,0.02,-0.10,-1.48,
17:25:27:112,0.22,3.34,0.63,-0.02,-0.13,-1.52,
17:25:27:112,0.24,3.29,0.41,-0.02,-0.13,-1.52,
17:25:27:113,0.24,3.29,0.41,-0.04,-0.09,-1.55,
17:25:27:113,-0.14,3.00,0.13,-0.04,-0.09,-1.55,
17:25:27:114,-0.14,3.00,0.13,-0.09,-0.08,-1.58,
17:25:27:117,-0.18,2.66,0.25,-0.09,-0.08,-1.58,
17:25:27:118,-0.18,2.66,0.25,-0.11,-0.04,-1.61,
17:25:27:118,0.40,3.10,0.02,-0.11,-0.04,-1.61,
17:25:27:121,0.40,3.10,0.02,-0.15,-0.03,-1.62,
17:25:27:122,-2.18,3.06,0.47,-0.15,-0.03,-1.62,
17:25:27:125,-2.18,3.06,0.47,-0.18,0.02,-1.58,
17:25:27:126,-1.15,3.91,0.10,-0.18,0.02,-1.58,
17:25:27:132,-2.20,3.71,1.25,-0.18,0.02,-1.58,
17:25:27:133,-2.20,3.71,1.25,-0.18,0.01,-1.56,
17:25:27:137,-2.20,3.71,1.25,-0.14,-0.05,-1.49,
17:25:27:137,-2.04,2.95,0.59,-0.14,-0.05,-1.49,
17:25:27:140,-2.04,2.95,0.59,-0.14,-0.11,-1.43,
17:25:27:141,-0.44,3.21,-0.26,-0.14,-0.11,-1.43,
17:25:27:147,1.77,2.99,-0.12,-0.14,-0.11,-1.43,
17:25:27:147,1.77,2.99,-0.12,-0.14,-0.19,-1.45,
17:25:27:151,2.51,2.61,1.72,-0.14,-0.19,-1.45,
17:25:27:152,2.51,2.61,1.72,-0.13,-0.36,-1.51,
17:25:27:156,2.51,2.61,1.72,-0.05,-0.35,-1.62,
17:25:27:157,2.00,1.22,0.70,-0.05,-0.35,-1.62,
17:25:27:159,-0.48,3.16,-0.08,-0.05,-0.35,-1.62,
17:25:27:160,-0.48,3.16,-0.08,-0.00,-0.16,-1.62,
17:25:27:165,-0.48,3.16,-0.08,-0.03,-0.87,-1.33,
17:25:27:166,1.41,-0.06,2.80,-0.03,-0.87,-1.33,
17:25:27:170,1.41,-0.06,2.80,0.01,-2.26,-1.09,
17:25:27:171,-1.29,-2.25,0.06,0.01,-2.26,-1.09,
17:25:27:175,-1.29,-2.25,0.06,-0.01,-2.79,-0.85,
17:25:27:176,-8.05,-2.49,-1.69,-0.01,-2.79,-0.85,
17:25:27:179,-9.56,-3.07,-1.51,-0.01,-2.79,-0.85,
17:25:27:180,-9.56,-3.07,-1.51,-0.18,-1.87,-0.56,
17:25:27:184,-5.04,-4.10,-1.08,-0.18,-1.87,-0.56,
17:25:27:185,-5.04,-4.10,-1.08,-0.20,-0.51,-0.23,
17:25:27:189,-5.04,-4.10,-1.08,-0.12,0.20,-0.07,
17:25:27:190,0.08,-3.42,-1.76,-0.12,0.20,-0.07,
17:25:27:194,0.88,-1.59,-2.80,-0.12,0.20,-0.07,
17:25:27:195,0.88,-1.59,-2.80,-0.10,0.09,-0.06,
17:25:27:199,0.88,-1.59,-2.80,-0.17,-0.02,-0.03,
17:25:27:200,-0.48,-2.37,-0.34,-0.17,-0.02,-0.03,
17:25:27:204,-0.48,-2.37,-0.34,-0.21,-0.28,0.04,
17:25:27:205,0.88,-2.93,-0.38,-0.21,-0.28,0.04,
17:25:27:208,0.88,-2.93,-0.38,-0.24,-0.39,0.03,
17:25:27:209,3.22,-3.25,-1.26,-0.24,-0.39,0.03,
17:25:27:214,3.22,-3.25,-1.26,-0.20,-0.11,-0.09,
17:25:27:215,5.21,-4.06,-1.18,-0.20,-0.11,-0.09,
17:25:27:218,5.21,-4.06,-1.18,-0.35,0.15,-0.31,
17:25:27:219,4.04,-2.52,0.02,-0.35,0.15,-0.31,
17:25:27:222,-1.47,-0.15,2.24,-0.35,0.15,-0.31,
17:25:27:236,-1.47,-0.15,2.24,-0.34,0.58,-0.48,
17:25:27:237,-2.61,0.40,2.28,-0.34,0.58,-0.48,
17:25:27:238,-2.61,0.40,2.28,-0.17,0.61,-0.48,
17:25:27:239,-2.61,0.40,2.28,0.00,0.24,-0.37,
17:25:27:243,-1.67,-1.93,-0.13,0.00,0.24,-0.37,
17:25:27:268,-1.67,-1.93,-0.13,0.05,-0.15,-0.34,
17:25:27:275,-0.25,-1.92,-1.17,0.05,-0.15,-0.34,
17:25:27:278,-0.25,-1.92,-1.17,0.06,-0.28,-0.36,
17:25:27:282,-0.20,-1.78,0.32,0.06,-0.28,-0.36,
17:25:27:283,0.74,-1.78,0.29,0.06,-0.28,-0.36,
17:25:27:284,0.74,-1.78,0.29,0.12,-0.12,-0.36,
17:25:27:284,1.52,-1.77,-0.04,0.12,-0.12,-0.36,
17:25:27:288,1.52,-1.77,-0.04,0.16,0.13,-0.44,
17:25:27:289,1.52,-1.77,-0.04,0.21,0.37,-0.52,
17:25:27:293,-0.05,-2.35,0.72,0.21,0.37,-0.52,
17:25:27:294,-0.05,-2.35,0.72,0.29,0.39,-0.56,
17:25:27:296,-0.41,-2.68,0.18,0.29,0.39,-0.56,
17:25:27:297,0.40,-2.84,0.44,0.29,0.39,-0.56,
17:25:27:298,0.40,-2.84,0.44,0.32,0.38,-0.56,
17:25:27:299,0.18,-2.89,0.43,0.32,0.38,-0.56,
17:25:27:299,0.18,-2.89,0.43,0.36,0.23,-0.61,
17:25:27:300,0.18,-2.89,0.43,0.41,0.11,-0.64,
17:25:27:300,-0.76,-3.53,0.83,0.41,0.11,-0.64,
17:25:27:307,-0.76,-3.53,0.83,0.43,-0.03,-0.63,
17:25:27:309,-0.56,-3.42,0.61,0.43,-0.03,-0.63,
17:25:27:309,-0.56,-3.42,0.61,0.44,-0.11,-0.64,
17:25:27:310,-1.00,-2.98,0.49,0.44,-0.11,-0.64,
17:25:27:311,-1.00,-2.98,0.49,0.43,-0.16,-0.63,
17:25:27:312,-0.96,-2.66,0.69,0.43,-0.16,-0.63,
17:25:27:349,-1.09,-2.02,0.02,0.43,-0.16,-0.63,
17:25:27:352,-1.09,-2.02,0.02,0.44,-0.24,-0.63,
17:25:27:354,-1.09,-2.02,0.02,0.44,-0.28,-0.61,
17:25:27:359,-1.07,-1.85,0.02,0.44,-0.28,-0.61,
17:25:27:360,-0.63,-1.98,0.02,0.44,-0.28,-0.61,
17:25:27:361,-0.63,-1.98,0.02,0.44,-0.28,-0.58,
17:25:27:363,-0.63,-1.98,0.02,0.45,-0.28,-0.57,
17:25:27:365,-0.33,-1.92,-0.02,0.45,-0.28,-0.57,
17:25:27:367,-0.33,-1.92,-0.02,0.47,-0.29,-0.55,
17:25:27:368,-0.54,-1.56,0.20,0.47,-0.29,-0.55,
17:25:27:369,-0.54,-1.56,0.20,0.51,-0.31,-0.50,
17:25:27:370,-0.41,-1.45,0.12,0.51,-0.31,-0.50,
17:25:27:370,-0.41,-1.45,0.12,0.54,-0.31,-0.44,
17:25:27:371,-0.36,-1.31,0.08,0.54,-0.31,-0.44,
17:25:27:371,-0.20,-1.23,-0.06,0.54,-0.31,-0.44,
17:25:27:372,-0.20,-1.23,-0.06,0.58,-0.26,-0.36,
17:25:27:373,-0.20,-1.23,-0.06,0.61,-0.18,-0.29,
17:25:27:373,-0.13,-1.03,-0.11,0.61,-0.18,-0.29,
17:25:27:374,-0.13,-1.03,-0.11,0.61,-0.09,-0.23,
17:25:27:375,-0.05,-0.46,-0.33,0.61,-0.09,-0.23,
17:25:27:376,-0.05,-0.46,-0.33,0.58,0.04,-0.19,
17:25:27:377,0.12,0.28,-0.43,0.58,0.04,-0.19,
17:25:27:378,0.12,0.28,-0.43,0.54,0.17,-0.17,
17:25:27:380,0.41,0.96,-0.01,0.54,0.17,-0.17,
17:25:27:381,1.06,0.97,-0.20,0.54,0.17,-0.17,
17:25:27:382,1.06,0.97,-0.20,0.52,0.27,-0.17,
17:25:27:382,1.06,0.97,-0.20,0.54,0.39,-0.22,
17:25:27:383,1.28,0.82,-0.44,0.54,0.39,-0.22,
17:25:27:384,1.21,0.71,-0.14,0.54,0.39,-0.22,
17:25:27:384,1.21,0.71,-0.14,0.57,0.53,-0.31,
17:25:27:385,1.21,0.71,-0.14,0.61,0.62,-0.41,
17:25:27:385,1.37,0.38,-0.37,0.61,0.62,-0.41,
17:25:27:386,0.89,0.79,-0.33,0.61,0.62,-0.41,
17:25:27:387,0.89,0.79,-0.33,0.62,0.72,-0.51,
17:25:27:387,0.89,0.79,-0.33,0.57,0.74,-0.58,
17:25:27:389,-0.17,1.46,-0.37,0.57,0.74,-0.58,
17:25:27:389,-1.43,1.91,-0.98,0.57,0.74,-0.58,
17:25:27:390,-1.43,1.91,-0.98,0.46,0.70,-0.60,
17:25:27:390,-2.62,1.76,-1.30,0.46,0.70,-0.60,
17:25:27:391,-2.62,1.76,-1.30,0.32,0.72,-0.56,
17:25:27:392,-2.62,1.76,-1.30,0.22,0.72,-0.47,
17:25:27:393,-1.08,1.34,1.36,0.22,0.72,-0.47,
17:25:27:398,-1.08,1.34,1.36,0.17,0.51,-0.40,
17:25:27:399,1.68,1.19,1.81,0.17,0.51,-0.40,
17:25:27:402,1.68,1.19,1.81,0.11,0.26,-0.38,
17:25:27:403,1.51,1.36,0.40,0.11,0.26,-0.38,
17:25:27:408,1.51,1.36,0.40,0.01,0.16,-0.40,
17:25:27:408,0.23,1.80,-0.39,0.01,0.16,-0.40,
17:25:27:413,-0.23,1.44,-0.04,0.01,0.16,-0.40,
17:25:27:415,-0.23,1.44,-0.04,-0.09,0.14,-0.42,
17:25:27:417,-0.23,1.44,-0.04,-0.10,0.14,-0.52,
17:25:27:418,0.13,0.96,0.37,-0.10,0.14,-0.52,
17:25:27:422,0.13,0.96,0.37,-0.03,0.16,-0.68,
17:25:27:423,-0.50,0.97,0.00,-0.03,0.16,-0.68,
17:25:27:426,-0.50,0.97,0.00,0.02,0.19,-0.80,
17:25:27:427,0.37,0.10,-0.41,0.02,0.19,-0.80,
17:25:27:432,1.76,-1.41,-0.58,0.02,0.19,-0.80,
17:25:27:432,1.76,-1.41,-0.58,0.04,0.28,-1.01,
17:25:27:436,1.62,-2.40,-0.79,0.04,0.28,-1.01,
17:25:27:436,1.62,-2.40,-0.79,0.02,0.50,-1.40,
17:25:27:441,0.47,-2.13,-0.10,0.02,0.50,-1.40,
17:25:27:442,0.47,-2.13,-0.10,0.01,0.76,-1.81,
17:25:27:449,0.47,-2.13,-0.10,0.03,0.89,-2.07,
17:25:27:451,0.05,-1.88,1.73,0.03,0.89,-2.07,
17:25:27:452,0.05,-1.88,1.73,0.11,0.60,-2.16,
17:25:27:454,-0.14,-1.67,2.16,0.11,0.60,-2.16,
17:25:27:456,-0.14,-1.67,2.16,0.17,0.19,-2.17,
17:25:27:466,0.38,-1.43,0.08,0.17,0.19,-2.17,
17:25:27:467,0.38,-1.43,0.08,0.16,0.15,-2.13,
17:25:27:467,1.23,0.34,-1.72,0.16,0.15,-2.13,
17:25:27:468,1.23,0.34,-1.72,0.20,0.49,-2.02,
17:25:27:468,1.44,2.24,-0.04,0.20,0.49,-2.02,
17:25:27:481,1.44,2.24,-0.04,0.25,0.66,-1.82,
17:25:27:483,0.87,3.19,1.63,0.25,0.66,-1.82,
17:25:27:486,-0.69,3.23,0.99,0.25,0.66,-1.82,
17:25:27:486,-0.69,3.23,0.99,0.24,0.49,-1.53,
17:25:27:487,-1.83,2.47,0.08,0.24,0.49,-1.53,
17:25:27:487,-1.83,2.47,0.08,0.15,0.26,-1.16,
17:25:27:487,-1.85,1.34,0.27,0.15,0.26,-1.16,
17:25:27:488,-1.85,1.34,0.27,-0.03,0.09,-0.78,
17:25:27:491,-1.85,1.34,0.27,-0.19,-0.08,-0.49,
17:25:27:492,-1.06,0.31,1.06,-0.19,-0.08,-0.49,
17:25:27:496,-0.24,-0.65,1.53,-0.19,-0.08,-0.49,
17:25:27:498,-0.24,-0.65,1.53,-0.30,-0.27,-0.33,
17:25:27:500,0.40,-1.14,0.56,-0.30,-0.27,-0.33,
17:25:27:502,0.40,-1.14,0.56,-0.40,-0.56,-0.34,
17:25:27:505,0.40,-1.14,0.56,-0.46,-0.59,-0.44,
17:25:27:506,0.16,0.13,-2.21,-0.46,-0.59,-0.44,
17:25:27:509,0.16,0.13,-2.21,-0.36,-0.16,-0.45,
17:25:27:517,-1.06,1.35,0.91,-0.36,-0.16,-0.45,
17:25:27:518,-1.00,1.65,1.52,-0.36,-0.16,-0.45,
17:25:27:519,-1.00,1.65,1.52,-0.20,-0.04,-0.32,
17:25:27:519,-1.00,1.65,1.52,-0.12,-0.17,-0.19,
17:25:27:520,-0.26,1.25,0.42,-0.12,-0.17,-0.19,
17:25:27:530,-0.26,1.25,0.42,-0.14,-0.26,-0.12,
17:25:27:532,0.02,0.42,-0.21,-0.14,-0.26,-0.12,
17:25:27:533,0.02,0.42,-0.21,-0.15,-0.15,-0.10,
17:25:27:533,-0.62,0.47,-0.29,-0.15,-0.15,-0.10,
17:25:27:535,-0.48,0.29,-0.15,-0.15,-0.15,-0.10,
17:25:27:535,-0.48,0.29,-0.15,-0.13,-0.02,-0.07,
17:25:27:573,-0.26,0.42,-0.24,-0.13,-0.02,-0.07,
17:25:27:573,-0.26,0.42,-0.24,-0.07,0.01,-0.04,
17:25:27:574,0.04,0.58,-0.34,-0.07,0.01,-0.04,
17:25:27:574,0.04,0.58,-0.34,0.00,0.02,0.00,
17:25:27:575,0.04,0.58,-0.34,0.07,0.09,0.06,
17:25:27:575,0.54,0.31,-0.40,0.07,0.09,0.06,
17:25:27:576,0.87,-0.22,0.02,0.07,0.09,0.06,
17:25:27:577,0.87,-0.22,0.02,0.13,0.15,0.09,
17:25:27:579,-0.09,0.07,-0.49,0.13,0.15,0.09,
17:25:27:580,-0.09,0.07,-0.49,0.16,0.17,0.11,
17:25:27:581,-0.29,-0.02,-0.46,0.16,0.17,0.11,
17:25:27:581,-0.29,-0.02,-0.46,0.15,0.25,0.15,
17:25:27:582,-0.29,-0.02,-0.46,0.15,0.29,0.18,
17:25:27:583,-0.20,1.68,0.97,0.15,0.29,0.18,
17:25:27:584,1.29,2.80,2.40,0.15,0.29,0.18,
17:25:27:584,1.29,2.80,2.40,0.30,0.22,0.20,
17:25:27:585,1.29,2.80,2.40,0.57,0.02,0.03,
17:25:27:586,1.44,0.92,0.01,0.57,0.02,0.03,
17:25:27:587,1.44,0.92,0.01,0.65,-0.06,-0.20,
17:25:27:588,-1.27,0.18,-1.61,0.65,-0.06,-0.20,
17:25:27:589,-1.27,0.18,-1.61,0.49,-0.04,-0.22,
17:25:27:589,-1.67,0.18,-1.40,0.49,-0.04,-0.22,
17:25:27:592,-1.67,0.18,-1.40,0.25,0.01,-0.24,
17:25:27:593,-0.97,-0.13,0.05,0.25,0.01,-0.24,
17:25:27:596,-0.97,-0.13,0.05,0.10,-0.02,-0.32,
17:25:27:597,-0.77,-0.57,0.16,0.10,-0.02,-0.32,
17:25:27:601,-0.33,-0.56,0.16,0.10,-0.02,-0.32,
17:25:27:602,-0.33,-0.56,0.16,-0.03,-0.16,-0.38,
17:25:27:606,-0.07,-0.04,0.40,-0.03,-0.16,-0.38,
17:25:27:607,-0.07,-0.04,0.40,-0.13,-0.28,-0.42,
17:25:27:611,-0.07,-0.04,0.40,-0.17,-0.34,-0.45,
17:25:27:612,0.01,0.44,0.15,-0.17,-0.34,-0.45,
17:25:27:616,0.01,0.44,0.15,-0.19,-0.37,-0.47,
17:25:27:617,0.33,0.77,0.13,-0.19,-0.37,-0.47,
17:25:27:621,0.33,0.77,0.13,-0.25,-0.48,-0.50,
17:25:27:621,0.12,1.14,-0.05,-0.25,-0.48,-0.50,
17:25:27:625,0.12,1.14,-0.05,-0.36,-0.61,-0.54,
17:25:27:626,-0.39,1.79,-0.47,-0.36,-0.61,-0.54,
17:25:27:632,-0.39,1.79,-0.47,-0.49,-0.72,-0.54,
17:25:27:633,-0.72,2.21,0.26,-0.49,-0.72,-0.54,
17:25:27:635,-0.72,2.21,0.26,-0.57,-0.82,-0.50,
17:25:27:636,-0.56,2.35,0.42,-0.57,-0.82,-0.50,
17:25:27:641,-0.56,2.35,0.42,-0.56,-0.89,-0.45,
17:25:27:641,-0.35,2.07,0.41,-0.56,-0.89,-0.45,
17:25:27:645,0.21,1.54,0.16,-0.56,-0.89,-0.45,
17:25:27:646,0.21,1.54,0.16,-0.45,-0.89,-0.40,
17:25:27:650,1.04,1.65,-0.12,-0.45,-0.89,-0.40,
17:25:27:651,1.04,1.65,-0.12,-0.33,-0.80,-0.39,
17:25:27:655,1.13,2.28,-0.13,-0.33,-0.80,-0.39,
17:25:27:656,1.13,2.28,-0.13,-0.20,-0.70,-0.42,
17:25:27:660,1.13,2.28,-0.13,-0.09,-0.57,-0.43,
17:25:27:661,0.60,2.12,0.27,-0.09,-0.57,-0.43,
17:25:27:666,0.73,2.16,0.13,-0.09,-0.57,-0.43,
17:25:27:669,0.73,2.16,0.13,0.02,-0.45,-0.42,
17:25:27:672,1.22,2.63,-0.39,0.02,-0.45,-0.42,
17:25:27:674,1.22,2.63,-0.39,0.10,-0.35,-0.43,
17:25:27:678,0.65,2.13,-0.08,0.10,-0.35,-0.43,
17:25:27:679,0.65,2.13,-0.08,0.14,-0.29,-0.43,
17:25:27:680,0.27,1.11,0.14,0.14,-0.29,-0.43,
17:25:27:681,0.27,1.11,0.14,0.17,-0.22,-0.40,
17:25:27:684,0.27,1.11,0.14,0.17,-0.16,-0.39,
17:25:27:684,0.81,0.52,-0.15,0.17,-0.16,-0.39,
17:25:27:690,0.81,0.52,-0.15,0.13,-0.15,-0.40,
17:25:27:690,0.38,-0.60,0.03,0.13,-0.15,-0.40,
17:25:27:694,0.38,-0.60,0.03,0.11,-0.14,-0.41,
17:25:27:695,0.50,-1.33,0.16,0.11,-0.14,-0.41,
17:25:27:698,0.50,-1.33,0.16,0.11,-0.12,-0.45,
17:25:27:699,0.42,-0.63,-0.46,0.11,-0.12,-0.45,
17:25:27:703,-0.04,-0.35,-0.29,0.11,-0.12,-0.45,
17:25:27:704,-0.04,-0.35,-0.29,0.08,-0.16,-0.45,
17:25:27:708,-0.04,-0.35,-0.29,0.04,-0.11,-0.44,
17:25:27:709,-0.28,0.67,0.19,0.04,-0.11,-0.44,
17:25:27:714,-0.28,0.67,0.19,0.04,-0.09,-0.41,
17:25:27:714,-0.50,0.78,0.29,0.04,-0.09,-0.41,
17:25:27:718,-0.50,0.78,0.29,0.02,-0.12,-0.36,
17:25:27:718,0.26,1.66,-0.22,0.02,-0.12,-0.36,
17:25:27:723,0.26,1.66,-0.22,0.00,-0.17,-0.34,
17:25:27:723,0.11,2.53,0.14,0.00,-0.17,-0.34,
17:25:27:727,0.97,1.86,0.01,0.00,-0.17,-0.34,
17:25:27:728,0.97,1.86,0.01,0.01,-0.19,-0.28,
17:25:27:732,1.55,2.57,0.19,0.01,-0.19,-0.28,
17:25:27:733,1.55,2.57,0.19,-0.00,-0.19,-0.30,
17:25:27:737,1.55,2.57,0.19,0.04,-0.11,-0.32,
17:25:27:738,0.50,1.42,1.07,0.04,-0.11,-0.32,
17:25:27:742,0.50,1.42,1.07,0.06,-0.09,-0.34,
17:25:27:743,0.42,2.19,0.49,0.06,-0.09,-0.34,
17:25:27:747,0.42,2.19,0.49,0.06,-0.06,-0.36,
17:25:27:748,-0.55,0.86,0.68,0.06,-0.06,-0.36,
17:25:27:752,-0.08,1.32,-0.24,0.06,-0.06,-0.36,
17:25:27:752,-0.08,1.32,-0.24,0.04,-0.03,-0.38,
17:25:27:757,-0.08,1.32,-0.24,0.01,-0.04,-0.40,
17:25:27:757,-0.43,0.50,0.14,0.01,-0.04,-0.40,
17:25:27:762,0.30,-0.57,0.22,0.01,-0.04,-0.40,
17:25:27:763,0.30,-0.57,0.22,-0.01,-0.08,-0.42,
17:25:27:766,0.30,-0.57,0.22,-0.04,-0.03,-0.50,
17:25:27:767,0.72,-0.17,-0.47,-0.04,-0.03,-0.50,
17:25:27:771,1.34,-0.21,0.63,-0.04,-0.03,-0.50,
17:25:27:771,1.34,-0.21,0.63,-0.02,0.03,-0.57,
17:25:27:776,1.61,-1.00,0.12,-0.02,0.03,-0.57,
17:25:27:777,1.61,-1.00,0.12,-0.01,0.04,-0.67,
17:25:27:817,1.68,-0.68,-0.92,-0.01,0.04,-0.67,
17:25:27:817,1.68,-0.68,-0.92,-0.03,0.16,-0.79,
17:25:27:818,0.76,-0.62,0.04,-0.03,0.16,-0.79,
17:25:27:819,0.76,-0.62,0.04,-0.04,0.20,-0.92,
17:25:27:820,0.76,-0.62,0.04,-0.07,0.23,-1.02,
17:25:27:821,1.21,-0.11,-0.27,-0.07,0.23,-1.02,
17:25:27:821,1.21,-0.11,-0.27,-0.09,0.20,-1.13,
17:25:27:822,0.78,-0.31,-0.19,-0.09,0.20,-1.13,
17:25:27:822,0.78,-0.31,-0.19,-0.13,0.28,-1.25,
17:25:27:823,0.86,-0.55,0.13,-0.13,0.28,-1.25,
17:25:27:823,0.86,-0.55,0.13,-0.17,0.29,-1.36,
17:25:27:823,0.93,-0.81,0.10,-0.17,0.29,-1.36,
17:25:27:825,0.93,-0.81,0.10,-0.17,0.36,-1.51,
17:25:27:825,1.13,-0.70,0.70,-0.17,0.36,-1.51,
17:25:27:827,1.13,-0.70,0.70,-0.12,0.31,-1.63,
17:25:27:828,1.30,-0.44,0.83,-0.12,0.31,-1.63,
17:25:27:830,1.30,-0.44,0.83,-0.12,0.23,-1.78,
17:25:27:831,1.35,0.50,0.06,-0.12,0.23,-1.78,
17:25:27:831,0.67,1.14,0.02,-0.12,0.23,-1.78,
17:25:27:832,0.67,1.14,0.02,-0.08,0.10,-1.88,
17:25:27:832,1.06,2.49,0.22,-0.08,0.10,-1.88,
17:25:27:833,1.06,2.49,0.22,-0.07,0.17,-1.94,
17:25:27:834,1.06,2.49,0.22,-0.04,0.12,-1.98,
17:25:27:835,1.07,3.58,0.12,-0.04,0.12,-1.98,
17:25:27:839,0.30,2.89,0.64,-0.04,0.12,-1.98,
17:25:27:840,0.30,2.89,0.64,-0.06,0.15,-1.98,
17:25:27:844,0.66,3.66,0.59,-0.06,0.15,-1.98,
17:25:27:845,0.66,3.66,0.59,-0.02,0.02,-1.96,
17:25:27:850,0.66,3.66,0.59,0.01,-0.13,-1.95,
17:25:27:851,0.37,3.42,-0.67,0.01,-0.13,-1.95,
17:25:27:854,0.37,3.42,-0.67,0.02,-0.14,-1.89,
17:25:27:855,1.12,2.97,-0.81,0.02,-0.14,-1.89,
17:25:27:859,1.12,2.97,-0.81,-0.06,-0.01,-1.86,
17:25:27:859,0.28,0.30,-0.45,-0.06,-0.01,-1.86,
17:25:27:864,0.28,0.30,-0.45,-0.10,0.05,-1.79,
17:25:27:864,0.34,-0.93,-0.89,-0.10,0.05,-1.79,
17:25:27:870,-2.38,-0.04,-0.74,-0.10,0.05,-1.79,
17:25:27:871,-2.38,-0.04,-0.74,-0.18,0.19,-1.73,
17:25:27:874,-3.19,-1.05,0.78,-0.18,0.19,-1.73,
17:25:27:875,-3.19,-1.05,0.78,-0.26,0.32,-1.56,
17:25:27:879,-3.19,-1.05,0.78,-0.28,0.11,-1.36,
17:25:27:880,-3.58,-1.52,0.57,-0.28,0.11,-1.36,
17:25:27:883,-3.58,-1.52,0.57,-0.24,-0.14,-1.15,
17:25:27:885,-2.98,-1.45,0.20,-0.24,-0.14,-1.15,
17:25:27:889,-2.36,-2.06,0.24,-0.24,-0.14,-1.15,
17:25:27:890,-2.36,-2.06,0.24,-0.21,-0.32,-0.98,
17:25:27:895,-1.77,-1.08,0.02,-0.21,-0.32,-0.98,
17:25:27:896,-1.77,-1.08,0.02,-0.14,-0.38,-0.80,
17:25:27:898,-1.77,-1.08,0.02,0.01,-0.25,-0.67,
17:25:27:898,-0.39,-0.62,-0.05,0.01,-0.25,-0.67,
17:25:27:903,-0.39,-0.62,-0.05,0.06,-0.09,-0.56,
17:25:27:904,-0.12,-1.72,-0.39,0.06,-0.09,-0.56,
17:25:27:907,-0.04,-1.37,-0.75,0.06,-0.09,-0.56,
17:25:27:908,-0.04,-1.37,-0.75,0.04,0.01,-0.50,
17:25:27:912,-0.04,-1.37,-0.75,0.03,0.11,-0.43,
17:25:27:913,-0.56,-2.23,-0.49,0.03,0.11,-0.43,
17:25:27:917,-0.24,-2.16,-0.67,0.03,0.11,-0.43,
17:25:27:918,-0.24,-2.16,-0.67,-0.05,0.19,-0.36,
17:25:27:922,-1.17,-1.72,0.23,-0.05,0.19,-0.36,
17:25:27:922,-1.17,-1.72,0.23,-0.08,0.24,-0.32,
17:25:27:926,-0.60,-0.13,0.11,-0.08,0.24,-0.32,
17:25:27:927,-0.60,-0.13,0.11,-0.07,0.33,-0.23,
17:25:27:935,-0.83,0.27,0.39,-0.07,0.33,-0.23,
17:25:27:936,-0.83,0.27,0.39,-0.07,0.36,-0.16,
17:25:27:937,-0.13,1.18,0.32,-0.07,0.36,-0.16,
17:25:27:938,-0.13,1.18,0.32,-0.06,0.36,-0.08,
17:25:27:941,0.30,1.35,0.70,-0.06,0.36,-0.08,
17:25:27:942,0.30,1.35,0.70,-0.03,0.43,0.00,
17:25:27:946,1.06,1.58,0.25,-0.03,0.43,0.00,
17:25:27:948,1.06,1.58,0.25,0.01,0.41,0.04,
17:25:27:951,1.06,1.58,0.25,0.05,0.40,0.08,
17:25:27:952,0.99,1.96,0.80,0.05,0.40,0.08,
17:25:27:956,0.99,1.96,0.80,0.13,0.49,0.09,
17:25:27:957,1.74,1.33,0.87,0.13,0.49,0.09,
17:25:27:961,1.74,1.33,0.87,0.22,0.43,0.06,
17:25:27:962,1.91,0.64,0.99,0.22,0.43,0.06,
17:25:27:966,0.37,2.03,0.74,0.22,0.43,0.06,
17:25:27:967,0.37,2.03,0.74,0.34,0.48,0.05,
17:25:27:971,0.42,1.60,1.42,0.34,0.48,0.05,
17:25:27:971,0.42,1.60,1.42,0.46,0.55,0.07,
17:25:27:975,-1.25,4.21,0.41,0.46,0.55,0.07,
17:25:27:976,-1.25,4.21,0.41,0.63,0.43,0.14,
17:25:27:981,-0.42,1.18,-0.04,0.63,0.43,0.14,
17:25:27:982,-0.42,1.18,-0.04,0.69,0.53,0.23,
17:25:27:985,-0.42,1.18,-0.04,0.74,0.50,0.23,
17:25:27:986,0.58,-0.71,-0.19,0.74,0.50,0.23,
17:25:27:990,0.76,-2.46,0.44,0.74,0.50,0.23,
17:25:27:992,0.76,-2.46,0.44,0.74,0.76,0.12,
17:25:27:996,0.76,-2.46,0.44,0.77,0.60,-0.03,
17:25:27:996,0.74,-5.60,0.90,0.77,0.60,-0.03,
17:25:28:000,0.74,-5.60,0.90,0.70,0.41,-0.16,
17:25:28:000,-0.34,-6.51,0.80,0.70,0.41,-0.16,
17:25:28:005,-0.34,-6.51,0.80,0.57,0.17,-0.23,
17:25:28:005,-1.80,-7.72,0.09,0.57,0.17,-0.23,
17:25:28:009,-2.32,-7.73,0.03,0.57,0.17,-0.23,
17:25:28:009,-2.32,-7.73,0.03,0.41,-0.08,-0.20,
17:25:28:014,-2.56,-8.04,-0.70,0.41,-0.08,-0.20,
17:25:28:015,-2.56,-8.04,-0.70,0.31,-0.15,-0.16,
17:25:28:019,-2.56,-8.04,-0.70,0.23,-0.14,-0.11,
17:25:28:020,-0.99,-8.25,-0.73,0.23,-0.14,-0.11,
17:25:28:053,-0.99,-8.25,-0.73,0.19,-0.14,-0.20,
17:25:28:054,-1.17,-6.45,-0.24,0.19,-0.14,-0.20,
17:25:28:054,-1.17,-6.45,-0.24,0.16,-0.24,-0.27,
17:25:28:055,-1.33,-2.25,0.29,0.16,-0.24,-0.27,
17:25:28:055,-1.33,-2.25,0.29,0.18,-0.36,-0.27,
17:25:28:056,-0.92,-0.01,0.43,0.18,-0.36,-0.27,
17:25:28:056,0.17,-0.80,0.35,0.18,-0.36,-0.27,
17:25:28:057,0.17,-0.80,0.35,0.16,-0.46,-0.22,
17:25:28:058,0.17,-0.80,0.35,0.13,-0.50,-0.22,
17:25:28:058,1.06,-1.03,0.09,0.13,-0.50,-0.22,
17:25:28:059,1.06,-1.03,0.09,0.13,-0.46,-0.27,
17:25:28:059,0.56,-0.82,-0.03,0.13,-0.46,-0.27,
17:25:28:060,0.56,-0.82,-0.03,0.15,-0.42,-0.29,
17:25:28:060,-0.00,-0.44,0.05,0.15,-0.42,-0.29,
17:25:28:061,-0.00,-0.44,0.05,0.16,-0.38,-0.28,
17:25:28:063,-0.26,0.10,-0.04,0.16,-0.38,-0.28,
17:25:28:064,-0.26,0.10,-0.04,0.16,-0.34,-0.26,
17:25:28:065,-0.19,0.50,-0.14,0.16,-0.34,-0.26,
17:25:28:069,-0.19,0.50,-0.14,0.13,-0.30,-0.26,
17:25:28:070,0.16,0.70,-0.16,0.13,-0.30,-0.26,
17:25:28:073,-0.17,1.82,-0.31,0.13,-0.30,-0.26,
17:25:28:074,-0.17,1.82,-0.31,0.10,-0.26,-0.27,
17:25:28:078,-0.17,1.82,-0.31,0.07,-0.20,-0.23,
17:25:28:078,-0.47,2.84,-0.19,0.07,-0.20,-0.23,
17:25:28:082,-0.47,2.84,-0.19,0.04,-0.15,-0.14,
17:25:28:082,-0.09,2.46,-0.11,0.04,-0.15,-0.14,
17:25:28:087,0.53,1.08,-0.13,0.04,-0.15,-0.14,
17:25:28:088,0.53,1.08,-0.13,0.03,-0.12,-0.10,
17:25:28:091,0.30,0.37,-0.03,0.03,-0.12,-0.10,
17:25:28:092,0.30,0.37,-0.03,0.02,-0.09,-0.11,
17:25:28:096,0.30,0.37,-0.03,0.02,-0.10,-0.11,
17:25:28:097,-0.04,0.20,0.20,0.02,-0.10,-0.11,
17:25:28:101,-0.04,0.20,0.20,0.02,-0.12,-0.09,
17:25:28:102,-0.08,0.24,0.19,0.02,-0.12,-0.09,
17:25:28:106,-0.08,0.24,0.19,0.01,-0.13,-0.07,
17:25:28:107,0.03,0.34,0.10,0.01,-0.13,-0.07,
17:25:28:112,-0.03,0.65,0.06,0.01,-0.13,-0.07,
17:25:28:112,-0.03,0.65,0.06,0.02,-0.11,-0.07,
17:25:28:116,-0.09,0.85,0.04,0.02,-0.11,-0.07,
17:25:28:117,-0.09,0.85,0.04,0.02,-0.09,-0.06,
17:25:28:121,-0.09,0.85,0.04,0.03,-0.06,-0.04,
17:25:28:122,0.06,0.84,-0.04,0.03,-0.06,-0.04,
17:25:28:125,0.06,0.84,-0.04,0.02,-0.03,-0.02,
17:25:28:126,0.36,0.50,-0.03,0.02,-0.03,-0.02,
17:25:28:130,0.37,0.27,0.08,0.02,-0.03,-0.02,
17:25:28:131,0.37,0.27,0.08,0.01,-0.02,-0.03,
17:25:28:136,0.37,0.27,0.08,-0.00,-0.01,-0.05,
17:25:28:136,0.12,0.22,0.30,-0.00,-0.01,-0.05,
17:25:28:140,0.12,0.22,0.30,-0.01,0.00,-0.07,
17:25:28:141,-0.12,0.30,0.55,-0.01,0.00,-0.07,
17:25:28:146,-0.12,0.30,0.55,-0.01,-0.02,-0.08,
17:25:28:146,-0.19,0.44,0.75,-0.01,-0.02,-0.08,
17:25:28:150,-0.19,0.44,0.75,-0.00,-0.05,-0.09,
17:25:28:150,-0.18,0.49,0.68,-0.00,-0.05,-0.09,
17:25:28:155,-0.13,0.51,0.60,-0.00,-0.05,-0.09,
17:25:28:156,-0.13,0.51,0.60,-0.01,-0.09,-0.10,
17:25:28:162,-0.01,0.34,0.38,-0.01,-0.09,-0.10,
17:25:28:163,-0.01,0.34,0.38,-0.01,-0.11,-0.11,
17:25:28:165,0.14,0.26,0.24,-0.01,-0.11,-0.11,
17:25:28:166,0.14,0.26,0.24,-0.01,-0.11,-0.11,
17:25:28:170,0.14,0.26,0.24,-0.01,-0.08,-0.11,
17:25:28:174,0.40,0.19,0.22,-0.01,-0.08,-0.11,
17:25:28:175,0.40,0.19,0.22,-0.01,-0.07,-0.11,
17:25:28:176,0.33,0.23,0.09,-0.01,-0.07,-0.11,
17:25:28:179,0.16,0.37,0.05,-0.01,-0.07,-0.11,
17:25:28:181,0.16,0.37,0.05,-0.02,-0.06,-0.10,
17:25:28:185,0.16,0.37,0.05,-0.03,-0.05,-0.08,
17:25:28:186,0.07,0.36,0.06,-0.03,-0.05,-0.08,
17:25:28:189,0.07,0.36,0.06,-0.03,-0.04,-0.06,
17:25:28:190,0.09,0.25,-0.05,-0.03,-0.04,-0.06,
17:25:28:197,0.09,0.25,-0.05,-0.03,-0.02,-0.03,
17:25:28:198,0.03,0.22,-0.03,-0.03,-0.02,-0.03,
17:25:28:201,0.03,0.22,-0.03,-0.03,0.01,-0.01,
17:25:28:203,0.07,0.11,-0.08,-0.03,0.01,-0.01,
17:25:28:205,0.07,0.11,-0.08,-0.03,0.04,0.01,
17:25:28:206,0.11,0.03,0.01,-0.03,0.04,0.01,
17:25:28:210,0.14,-0.01,-0.03,-0.03,0.04,0.01,
17:25:28:211,0.14,-0.01,-0.03,-0.04,0.06,0.02,
17:25:28:214,0.17,-0.12,-0.11,-0.04,0.06,0.02,
17:25:28:215,0.17,-0.12,-0.11,-0.03,0.09,0.03,
17:25:28:219,0.17,-0.12,-0.11,-0.04,0.12,0.03,
17:25:28:220,0.05,-0.09,-0.09,-0.04,0.12,0.03,
17:25:28:223,0.05,-0.09,-0.09,-0.04,0.15,0.03,
17:25:28:224,-0.06,-0.03,-0.03,-0.04,0.15,0.03,
17:25:28:229,-0.06,-0.03,-0.03,-0.04,0.16,0.03,
17:25:28:230,-0.34,0.17,-0.04,-0.04,0.16,0.03,
17:25:28:237,-0.34,0.17,-0.04,-0.04,0.15,0.04,
17:25:28:239,-0.37,0.10,-0.21,-0.04,0.15,0.04,
17:25:28:240,-0.20,-0.06,-0.33,-0.04,0.15,0.04,
17:25:28:241,-0.20,-0.06,-0.33,-0.04,0.19,0.07,
17:25:28:243,0.05,-0.18,-0.27,-0.04,0.19,0.07,
17:25:28:244,0.05,-0.18,-0.27,-0.04,0.23,0.09,
17:25:28:248,0.05,-0.18,-0.27,-0.03,0.27,0.11,
17:25:28:249,0.33,-0.48,-0.18,-0.03,0.27,0.11,
17:25:28:252,0.48,-0.57,-0.24,-0.03,0.27,0.11,
17:25:28:253,0.48,-0.57,-0.24,-0.02,0.31,0.11,
17:25:28:258,-0.07,-0.05,-0.05,-0.02,0.31,0.11,
17:25:28:259,-0.07,-0.05,-0.05,-0.01,0.34,0.10,
17:25:28:262,-0.07,-0.05,-0.05,-0.01,0.33,0.12,
17:25:28:263,-0.41,0.39,0.12,-0.01,0.33,0.12,
17:25:28:304,-0.46,0.43,0.23,-0.01,0.33,0.12,
17:25:28:305,-0.46,0.43,0.23,-0.03,0.30,0.14,
17:25:28:306,-0.46,0.43,0.23,-0.03,0.26,0.15,
17:25:28:306,-0.37,0.41,0.19,-0.03,0.26,0.15,
17:25:28:307,-0.37,0.41,0.19,-0.02,0.23,0.13,
17:25:28:308,-0.40,0.32,0.26,-0.02,0.23,0.13,
17:25:28:308,-0.32,0.19,0.34,-0.02,0.23,0.13,
17:25:28:308,-0.32,0.19,0.34,-0.02,0.19,0.10,
17:25:28:310,-0.21,0.04,0.33,-0.02,0.19,0.10,
17:25:28:310,-0.21,0.04,0.33,-0.01,0.15,0.08,
17:25:28:311,-0.21,0.04,0.33,-0.00,0.11,0.06,
17:25:28:311,-0.03,-0.12,0.20,-0.00,0.11,0.06,
17:25:28:312,-0.03,-0.12,0.20,0.00,0.08,0.02,
17:25:28:312,-0.10,0.03,0.05,0.00,0.08,0.02,
17:25:28:313,-0.30,0.24,0.17,0.00,0.08,0.02,
17:25:28:313,-0.30,0.24,0.17,0.00,0.05,0.00,
17:25:28:314,-0.35,0.26,0.13,0.00,0.05,0.00,
17:25:28:315,-0.35,0.26,0.13,-0.01,-0.00,-0.00,
17:25:28:315,-0.35,0.26,0.13,-0.01,-0.04,0.00,
17:25:28:316,-0.35,0.29,0.12,-0.01,-0.04,0.00,
17:25:28:316,-0.35,0.29,0.12,-0.02,-0.06,0.01,
17:25:28:318,-0.32,0.30,0.26,-0.02,-0.06,0.01,
17:25:28:320,-0.32,0.30,0.26,-0.02,-0.08,0.02,
17:25:28:321,-0.08,0.15,0.19,-0.02,-0.08,0.02,
17:25:28:325,0.15,0.03,0.19,-0.02,-0.08,0.02,
17:25:28:325,0.15,0.03,0.19,-0.01,-0.07,0.02,
17:25:28:331,0.04,0.08,0.07,-0.01,-0.07,0.02,
17:25:28:331,0.04,0.08,0.07,0.00,-0.06,-0.01,
17:25:28:336,0.04,0.08,0.07,0.00,-0.04,-0.04,
17:25:28:336,-0.17,0.21,0.04,0.00,-0.04,-0.04,
17:25:28:339,-0.17,0.21,0.04,0.00,-0.02,-0.04,
17:25:28:339,-0.30,0.30,0.08,0.00,-0.02,-0.04,
17:25:28:344,-0.06,0.04,-0.15,0.00,-0.02,-0.04,
17:25:28:345,-0.06,0.04,-0.15,-0.01,-0.01,-0.03,
17:25:28:350,-0.06,0.04,-0.15,-0.01,0.04,-0.02,
17:25:28:351,0.20,-0.20,-0.42,-0.01,0.04,-0.02,
17:25:28:355,-0.06,0.18,-0.17,-0.01,0.04,-0.02,
17:25:28:355,-0.06,0.18,-0.17,-0.01,0.11,-0.01,
17:25:28:360,-0.06,0.18,-0.17,-0.02,0.13,0.03,
17:25:28:361,-0.01,0.33,-0.01,-0.02,0.13,0.03,
17:25:28:364,0.35,0.14,0.02,-0.02,0.13,0.03,
17:25:28:365,0.35,0.14,0.02,-0.02,0.13,0.08,
17:25:28:369,0.35,0.14,0.02,-0.02,0.16,0.10,
17:25:28:370,0.63,0.03,0.02,-0.02,0.16,0.10,
17:25:28:374,0.63,0.03,0.02,-0.01,0.21,0.10,
17:25:28:375,0.55,0.08,0.15,-0.01,0.21,0.10,
17:25:28:378,0.27,0.24,0.26,-0.01,0.21,0.10,
17:25:28:379,0.27,0.24,0.26,-0.00,0.23,0.08,
17:25:28:383,0.04,0.22,0.27,-0.00,0.23,0.08,
17:25:28:384,0.04,0.22,0.27,0.00,0.22,0.08,
17:25:28:388,0.04,0.22,0.27,-0.00,0.19,0.07,
17:25:28:389,-0.18,0.19,0.12,-0.00,0.19,0.07,
17:25:28:393,-0.18,0.19,0.12,-0.00,0.16,0.07,
17:25:28:394,-0.35,0.04,0.18,-0.00,0.16,0.07,
17:25:28:398,-0.35,0.04,0.18,-0.00,0.13,0.06,
17:25:28:399,-0.38,-0.06,0.21,-0.00,0.13,0.06,
17:25:28:404,-0.39,-0.05,0.25,-0.00,0.13,0.06,
17:25:28:405,-0.39,-0.05,0.25,0.01,0.09,0.04,
17:25:28:408,-0.39,-0.05,0.25,0.01,0.05,0.03,
17:25:28:408,-0.46,0.02,0.20,0.01,0.05,0.03,
17:25:28:412,-0.46,0.02,0.20,0.02,0.02,0.02,
17:25:28:413,-0.32,0.01,0.12,0.02,0.02,0.02,
17:25:28:417,-0.32,0.01,0.12,0.02,-0.01,0.00,
17:25:28:418,-0.19,0.00,0.13,0.02,-0.01,0.00,
17:25:28:422,-0.19,0.00,0.13,0.02,-0.04,-0.02,
17:25:28:423,-0.12,-0.05,0.16,0.02,-0.04,-0.02,
17:25:28:427,-0.44,0.05,0.12,0.02,-0.04,-0.02,
17:25:28:428,-0.44,0.05,0.12,0.03,-0.06,-0.06,
17:25:28:432,-0.44,0.05,0.12,0.04,-0.09,-0.08,
17:25:28:433,-0.60,0.15,0.09,0.04,-0.09,-0.08,
17:25:28:436,-0.27,0.11,0.12,0.04,-0.09,-0.08,
17:25:28:437,-0.27,0.11,0.12,0.04,-0.13,-0.07,
17:25:28:442,-0.27,0.11,0.12,0.04,-0.16,-0.06,
17:25:28:443,0.02,0.13,0.09,0.04,-0.16,-0.06,
17:25:28:446,0.02,0.13,0.09,0.04,-0.16,-0.06,
17:25:28:448,0.18,0.25,0.03,0.04,-0.16,-0.06,
17:25:28:451,0.13,0.40,-0.04,0.04,-0.16,-0.06,
17:25:28:452,0.13,0.40,-0.04,0.05,-0.14,-0.07,
17:25:28:456,0.13,0.40,-0.04,0.05,-0.10,-0.07,
17:25:28:457,0.10,0.40,-0.10,0.05,-0.10,-0.07,
17:25:28:461,0.10,0.40,-0.10,0.04,-0.06,-0.07,
17:25:28:462,0.10,0.33,-0.06,0.04,-0.06,-0.07,
17:25:28:466,0.10,0.33,-0.06,0.04,-0.04,-0.07,
17:25:28:467,0.00,0.35,-0.03,0.04,-0.04,-0.07,
17:25:28:471,0.00,0.35,-0.03,0.04,-0.03,-0.07,
17:25:28:472,-0.11,0.27,0.00,0.04,-0.03,-0.07,
17:25:28:476,-0.17,0.25,0.06,0.04,-0.03,-0.07,
17:25:28:477,-0.17,0.25,0.06,0.04,-0.02,-0.06,
17:25:28:480,-0.17,0.25,0.06,0.03,-0.02,-0.05,
17:25:28:481,-0.11,0.17,0.24,0.03,-0.02,-0.05,
17:25:28:486,0.16,0.05,0.38,0.03,-0.02,-0.05,
17:25:28:487,0.16,0.05,0.38,0.02,-0.05,-0.05,
17:25:28:490,0.16,0.05,0.38,0.02,-0.06,-0.06,
17:25:28:491,-0.02,0.33,-0.03,0.02,-0.06,-0.06,
17:25:28:495,-0.02,0.33,-0.03,0.02,-0.02,-0.05,
17:25:28:496,-0.21,0.55,0.10,0.02,-0.02,-0.05,
17:25:28:500,-0.36,0.98,0.33,0.02,-0.02,-0.05,
17:25:28:501,-0.36,0.98,0.33,0.02,0.00,-0.02,
17:25:28:505,-0.36,0.98,0.33,0.01,-0.02,0.03,
17:25:28:506,0.32,0.24,0.24,0.01,-0.02,0.03,
17:25:28:546,0.32,0.24,0.24,0.02,0.00,0.04,
17:25:28:548,0.99,-0.85,-0.15,0.02,0.00,0.04,
17:25:28:548,0.99,-0.85,-0.15,0.02,0.08,-0.00,
17:25:28:549,0.81,-1.15,-0.41,0.02,0.08,-0.00,
17:25:28:549,0.81,-1.15,-0.41,0.02,0.17,-0.06,
17:25:28:550,-0.11,-0.40,-0.01,0.02,0.17,-0.06,
17:25:28:550,-0.99,0.57,0.43,0.02,0.17,-0.06,
17:25:28:551,-0.99,0.57,0.43,0.02,0.15,-0.08,
17:25:28:552,-0.99,0.57,0.43,0.01,0.05,-0.04,
17:25:28:553,-0.77,0.70,0.28,0.01,0.05,-0.04,
17:25:28:553,-0.77,0.70,0.28,0.01,-0.00,-0.02,
17:25:28:554,0.14,0.15,0.18,0.01,-0.00,-0.02,
17:25:28:554,0.14,0.15,0.18,0.01,0.01,-0.03,
17:25:28:555,0.47,-0.13,0.13,0.01,0.01,-0.03,
17:25:28:555,0.47,-0.13,0.13,0.02,0.04,-0.06,
17:25:28:556,0.21,0.04,0.27,0.02,0.04,-0.06,
17:25:28:556,0.04,0.33,0.29,0.02,0.04,-0.06,
17:25:28:557,0.04,0.33,0.29,0.02,0.05,-0.05,
17:25:28:558,0.04,0.33,0.29,0.00,0.03,-0.02,
17:25:28:558,0.19,0.42,0.18,0.00,0.03,-0.02,
17:25:28:559,0.19,0.42,0.18,-0.01,0.03,0.01,
17:25:28:559,0.34,0.37,0.06,-0.01,0.03,0.01,
17:25:28:563,0.34,0.37,0.06,-0.01,0.06,0.02,
17:25:28:564,0.12,0.56,0.03,-0.01,0.06,0.02,
17:25:28:567,0.12,0.56,0.03,-0.01,0.10,0.02,
17:25:28:568,-0.22,0.87,0.27,-0.01,0.10,0.02,
17:25:28:572,-0.38,0.91,0.40,-0.01,0.10,0.02,
17:25:28:574,-0.38,0.91,0.40,-0.00,0.09,0.01,
17:25:28:577,-0.17,0.42,0.42,-0.00,0.09,0.01,
17:25:28:578,-0.17,0.42,0.42,0.01,0.06,0.03,
17:25:28:582,-0.17,0.42,0.42,0.02,0.02,0.05,
17:25:28:583,0.35,-0.38,0.38,0.02,0.02,0.05,
17:25:28:587,0.80,-0.69,0.07,0.02,0.02,0.05,
17:25:28:588,0.80,-0.69,0.07,0.00,0.01,0.07,
17:25:28:592,0.79,-0.31,-0.19,0.00,0.01,0.07,
17:25:28:593,0.79,-0.31,-0.19,-0.01,0.06,0.08,
17:25:28:597,0.06,0.31,-0.20,-0.01,0.06,0.08,
17:25:28:598,0.06,0.31,-0.20,-0.03,0.08,0.08,
17:25:28:602,0.06,0.31,-0.20,-0.04,0.07,0.12,
17:25:28:604,-0.55,0.82,-0.27,-0.04,0.07,0.12,
17:25:28:606,-0.55,0.82,-0.27,-0.02,0.09,0.20,
17:25:28:608,-0.31,0.91,0.14,-0.02,0.09,0.20,
17:25:28:612,-0.31,0.91,0.14,-0.00,0.04,0.26,
17:25:28:613,0.24,0.84,0.66,-0.00,0.04,0.26,
17:25:28:616,0.24,0.84,0.66,-0.01,-0.16,0.28,
17:25:28:617,0.23,1.83,2.23,-0.01,-0.16,0.28,
17:25:28:622,0.23,1.83,2.23,0.00,-0.35,0.29,
17:25:28:623,0.36,-0.82,-1.83,0.00,-0.35,0.29,
17:25:28:626,0.36,-0.82,-1.83,0.03,-0.04,0.23,
17:25:28:627,0.04,-0.96,-0.48,0.03,-0.04,0.23,
17:25:28:631,0.04,-0.96,-0.48,0.05,0.12,0.16,
17:25:28:632,-0.42,-0.59,-0.03,0.05,0.12,0.16,
17:25:28:636,-0.42,-0.59,-0.03,0.03,0.10,0.11,
17:25:28:637,-0.95,0.12,0.24,0.03,0.10,0.11,
17:25:28:641,-0.95,0.12,0.24,0.02,0.03,0.12,
17:25:28:642,-0.84,0.48,0.31,0.02,0.03,0.12,
17:25:28:646,-0.20,0.51,0.18,0.02,0.03,0.12,
17:25:28:647,-0.20,0.51,0.18,0.04,-0.03,0.16,
17:25:28:650,0.27,0.35,0.23,0.04,-0.03,0.16,
17:25:28:651,0.27,0.35,0.23,0.07,-0.07,0.18,
17:25:28:655,0.27,0.35,0.23,0.09,-0.11,0.18,
17:25:28:656,0.50,0.64,1.23,0.09,-0.11,0.18,
17:25:28:661,0.50,0.64,1.23,0.16,-0.28,0.18,
17:25:28:661,-0.21,2.44,0.66,0.16,-0.28,0.18,
17:25:28:665,-0.21,2.44,0.66,0.08,-0.42,0.39,
17:25:28:666,-3.05,5.01,-3.40,0.08,-0.42,0.39,
17:25:28:670,3.19,2.74,-1.82,0.08,-0.42,0.39,
17:25:28:671,3.19,2.74,-1.82,-0.19,-0.12,0.93,
17:25:28:674,7.55,-2.08,-0.85,-0.19,-0.12,0.93,
17:25:28:675,7.55,-2.08,-0.85,-0.12,0.50,1.03,
17:25:28:680,4.88,-2.90,1.11,-0.12,0.50,1.03,
17:25:28:680,4.88,-2.90,1.11,0.03,0.99,0.65,
17:25:28:684,4.88,-2.90,1.11,0.10,1.03,0.28,
17:25:28:685,0.18,-2.05,0.86,0.10,1.03,0.28,
17:25:28:691,0.18,-2.05,0.86,0.08,0.88,0.09,
17:25:28:692,-3.43,-0.92,-0.22,0.08,0.88,0.09,
17:25:28:694,-4.94,-0.50,0.05,0.08,0.88,0.09,
17:25:28:694,-4.94,-0.50,0.05,0.03,0.75,0.09,
17:25:28:698,-4.41,-0.25,0.87,0.03,0.75,0.09,
17:25:28:699,-4.41,-0.25,0.87,0.00,0.55,0.18,
17:25:28:703,-2.76,-0.41,0.62,0.00,0.55,0.18,
17:25:28:704,-2.76,-0.41,0.62,-0.00,0.29,0.25,
17:25:28:709,-2.76,-0.41,0.62,-0.00,0.13,0.24,
17:25:28:710,-0.73,-0.53,0.32,-0.00,0.13,0.24,
17:25:28:714,-0.73,-0.53,0.32,0.00,0.07,0.16,
17:25:28:715,0.50,-0.27,0.21,0.00,0.07,0.16,
17:25:28:722,0.64,0.08,0.36,0.00,0.07,0.16,
17:25:28:723,0.64,0.08,0.36,-0.00,0.04,0.07,
17:25:28:723,0.64,0.08,0.36,-0.00,0.03,0.02,
17:25:28:724,0.14,0.36,0.21,-0.00,0.03,0.02,
17:25:28:728,0.14,0.36,0.21,-0.00,0.03,0.03,
17:25:28:728,-0.04,0.46,-0.08,-0.00,0.03,0.03,
17:25:28:735,-0.04,0.46,-0.08,-0.00,0.06,0.06,
17:25:28:736,0.15,0.57,-0.04,-0.00,0.06,0.06,
17:25:28:738,0.15,0.57,-0.04,-0.00,0.08,0.07,
17:25:28:738,0.33,0.49,0.08,-0.00,0.08,0.07,
17:25:28:744,0.20,0.59,0.17,-0.00,0.08,0.07,
17:25:28:744,0.20,0.59,0.17,0.00,0.10,0.08,
17:25:28:749,-0.06,0.69,0.27,0.00,0.10,0.08,
17:25:28:749,-0.06,0.69,0.27,0.01,0.11,0.08,
17:25:28:782,-0.06,0.69,0.27,0.01,0.11,0.08,
17:25:28:783,-0.11,0.59,0.27,0.01,0.11,0.08,
17:25:28:783,-0.11,0.59,0.27,0.01,0.10,0.09,
17:25:28:784,-0.09,0.56,0.28,0.01,0.10,0.09,
17:25:28:785,-0.15,0.62,0.28,0.01,0.10,0.09,
17:25:28:786,-0.15,0.62,0.28,0.01,0.09,0.08,
17:25:28:787,-0.16,0.54,0.29,0.01,0.09,0.08,
17:25:28:787,-0.16,0.54,0.29,0.01,0.07,0.08,
17:25:28:788,-0.28,0.65,0.30,0.01,0.07,0.08,
17:25:28:789,-0.28,0.65,0.30,0.01,0.05,0.06,
17:25:28:789,-0.27,0.54,0.29,0.01,0.05,0.06,
17:25:28:790,-0.27,0.54,0.29,0.02,0.03,0.05,
17:25:28:791,-0.27,0.54,0.29,0.02,0.00,0.05,
17:25:28:792,-0.11,0.42,0.23,0.02,0.00,0.05,
17:25:28:792,-0.03,0.18,0.09,0.02,0.00,0.05,
17:25:28:793,-0.03,0.18,0.09,0.03,-0.01,0.04,
17:25:28:793,0.14,-0.04,0.15,0.03,-0.01,0.04,
17:25:28:794,0.14,-0.04,0.15,0.02,-0.01,0.03,
17:25:28:797,0.14,-0.04,0.15,0.01,-0.01,0.01,
17:25:28:798,0.28,-0.40,0.10,0.01,-0.01,0.01,
17:25:28:801,0.28,-0.40,0.10,0.01,-0.02,-0.00,
17:25:28:802,0.23,-0.70,0.06,0.01,-0.02,-0.00,
17:25:28:805,0.23,-0.70,0.06,-0.00,-0.02,-0.02,
17:25:28:806,0.08,-0.75,0.06,-0.00,-0.02,-0.02,
17:25:28:810,-0.11,-0.62,0.11,-0.00,-0.02,-0.02,
17:25:28:811,-0.11,-0.62,0.11,-0.01,-0.04,-0.04,
17:25:28:815,-0.25,-0.46,0.06,-0.01,-0.04,-0.04,
17:25:28:816,-0.25,-0.46,0.06,-0.02,-0.07,-0.04,
17:25:28:820,-0.34,-0.36,-0.16,-0.02,-0.07,-0.04,
17:25:28:820,-0.34,-0.36,-0.16,-0.01,-0.08,-0.04,
17:25:28:825,-0.34,-0.36,-0.16,-0.01,-0.06,-0.03,
17:25:28:825,-0.20,-0.19,-0.40,-0.01,-0.06,-0.03,
17:25:28:830,-0.06,0.07,-0.25,-0.01,-0.06,-0.03,
17:25:28:830,-0.06,0.07,-0.25,-0.01,-0.02,-0.03,
17:25:28:835,-0.06,0.07,-0.25,-0.02,0.01,-0.02,
17:25:28:836,-0.01,0.26,-0.02,-0.02,0.01,-0.02,
17:25:28:839,-0.01,0.26,-0.02,-0.02,0.01,-0.01,
17:25:28:839,-0.10,0.44,0.03,-0.02,0.01,-0.01,
17:25:28:846,-0.10,0.44,0.03,-0.03,0.01,0.01,
17:25:28:846,-0.09,0.49,-0.09,-0.03,0.01,0.01,
17:25:28:850,0.20,0.35,-0.04,-0.03,0.01,0.01,
17:25:28:852,0.20,0.35,-0.04,-0.02,0.05,0.04,
17:25:28:854,0.20,0.35,-0.04,-0.01,0.08,0.06,
17:25:28:855,0.36,0.21,0.18,-0.01,0.08,0.06,
17:25:28:859,0.36,0.21,0.18,-0.00,0.10,0.07,
17:25:28:860,0.40,0.08,0.43,-0.00,0.10,0.07,
17:25:28:864,0.38,-0.03,0.55,-0.00,0.10,0.07,
17:25:28:865,0.38,-0.03,0.55,0.00,0.09,0.07,
17:25:28:869,0.32,-0.12,0.59,0.00,0.09,0.07,
17:25:28:869,0.32,-0.12,0.59,-0.00,0.07,0.06,
17:25:28:873,0.32,-0.12,0.59,-0.00,0.03,0.04,
17:25:28:874,-0.19,0.02,0.43,-0.00,0.03,0.04,
17:25:28:878,-0.19,0.02,0.43,-0.01,-0.01,0.03,
17:25:28:879,-0.53,0.35,-0.08,-0.01,-0.01,0.03,
17:25:28:884,-0.53,0.35,-0.08,-0.01,-0.00,0.04,
17:25:28:885,-0.18,0.28,-0.28,-0.01,-0.00,0.04,
17:25:28:889,-0.04,0.31,-0.35,-0.01,-0.00,0.04,
17:25:28:890,-0.04,0.31,-0.35,-0.01,0.01,0.04,
17:25:28:893,-0.16,0.13,-0.15,-0.01,0.01,0.04,
17:25:28:895,-0.16,0.13,-0.15,-0.00,0.01,0.04,
17:25:28:898,-0.16,0.13,-0.15,0.00,0.01,0.04,
17:25:28:899,-0.11,0.00,-0.05,0.00,0.01,0.04,
17:25:28:903,-0.11,0.00,-0.05,0.00,0.00,0.04,
17:25:28:904,-0.01,-0.10,0.17,0.00,0.00,0.04,
17:25:28:908,-0.01,-0.10,0.17,0.01,-0.01,0.03,
17:25:28:909,0.00,-0.10,0.20,0.01,-0.01,0.03,
17:25:28:912,0.05,-0.06,0.22,0.01,-0.01,0.03,
17:25:28:913,0.05,-0.06,0.22,0.01,-0.01,0.02,
17:25:28:917,0.06,0.09,0.20,0.01,-0.01,0.02,
17:25:28:918,0.06,0.09,0.20,0.01,-0.01,0.02,
17:25:28:922,0.06,0.09,0.20,0.01,-0.02,0.02,
17:25:28:923,0.04,0.09,0.19,0.01,-0.02,0.02,
17:25:28:927,0.04,0.09,0.19,0.01,-0.03,0.01,
17:25:28:928,0.01,0.05,0.12,0.01,-0.03,0.01,
17:25:28:933,0.01,0.05,0.12,0.01,-0.04,0.01,
17:25:28:934,-0.00,0.04,0.05,0.01,-0.04,0.01,
17:25:28:938,0.02,0.02,-0.04,0.01,-0.04,0.01,
17:25:28:939,0.02,0.02,-0.04,0.01,-0.03,0.01,
17:25:28:942,0.02,0.02,-0.04,0.02,-0.00,0.01,
17:25:28:943,0.08,-0.00,-0.10,0.02,-0.00,0.01,
17:25:28:947,0.08,-0.00,-0.10,0.01,0.01,0.00,
17:25:28:948,0.09,-0.08,0.02,0.01,0.01,0.00,
17:25:28:952,0.09,-0.08,0.02,0.01,0.02,-0.00,
17:25:28:953,0.04,-0.03,-0.03,0.01,0.02,-0.00,
17:25:28:956,0.04,-0.03,-0.03,0.02,0.03,0.00,
17:25:28:957,0.02,0.02,0.03,0.02,0.03,0.00,
17:25:28:962,0.02,0.07,0.10,0.02,0.03,0.00,
17:25:28:967,0.02,0.07,0.10,0.02,0.04,0.01,
17:25:28:968,0.02,0.07,0.10,0.02,0.04,0.01,
17:25:28:972,0.10,0.15,0.28,0.02,0.04,0.01,
17:25:28:976,0.10,0.15,0.28,0.02,0.03,0.02,
17:25:28:978,0.04,0.37,0.43,0.02,0.03,0.02,
17:25:28:981,0.04,0.37,0.43,0.01,0.00,0.03,
17:25:28:981,-0.07,0.44,0.31,0.01,0.00,0.03,
17:25:28:982,0.08,0.37,0.21,0.01,0.00,0.03,
17:25:28:982,0.08,0.37,0.21,-0.00,0.01,0.04,
17:25:28:985,0.14,0.41,0.16,-0.00,0.01,0.04,
17:25:28:986,0.14,0.41,0.16,0.00,0.02,0.05,
17:25:28:990,0.14,0.41,0.16,0.00,0.02,0.06,
17:25:28:990,0.00,0.70,0.19,0.00,0.02,0.06,
17:25:29:024,0.00,0.70,0.19,0.01,0.01,0.08,
17:25:29:025,0.10,1.19,0.42,0.01,0.01,0.08,
17:25:29:025,0.10,1.19,0.42,0.03,-0.03,0.15,
17:25:29:026,-0.00,0.99,0.03,0.03,-0.03,0.15,
17:25:29:026,0.23,0.31,-0.44,0.03,-0.03,0.15,
17:25:29:026,0.23,0.31,-0.44,0.03,-0.03,0.21,
17:25:29:027,0.60,-0.35,-0.45,0.03,-0.03,0.21,
17:25:29:028,0.60,-0.35,-0.45,0.02,0.04,0.22,
17:25:29:028,0.40,-0.56,-0.03,0.02,0.04,0.22,
17:25:29:029,0.40,-0.56,-0.03,0.01,0.11,0.17,
17:25:29:029,0.40,-0.56,-0.03,0.01,0.12,0.11,
17:25:29:030,-0.17,-0.92,0.05,0.01,0.12,0.11,
17:25:29:031,-0.17,-0.92,0.05,0.02,0.12,0.04,
17:25:29:031,-0.72,-0.84,-0.01,0.02,0.12,0.04,
17:25:29:032,-0.67,-0.61,0.18,0.02,0.12,0.04,
17:25:29:033,-0.67,-0.61,0.18,0.02,0.11,-0.00,
17:25:29:034,-0.08,-0.83,0.41,0.02,0.11,-0.00,
17:25:29:034,-0.08,-0.83,0.41,0.02,0.06,-0.02,
17:25:29:040,-0.08,-0.83,0.41,0.01,-0.03,-0.05,
17:25:29:041,-0.09,-0.57,0.40,0.01,-0.03,-0.05,
17:25:29:043,-0.09,-0.57,0.40,0.01,-0.08,-0.07,
17:25:29:044,0.01,-0.22,0.22,0.01,-0.08,-0.07,
17:25:29:048,0.01,-0.22,0.22,0.01,-0.10,-0.08,
17:25:29:049,0.18,-0.04,0.27,0.01,-0.10,-0.08,
17:25:29:053,0.18,-0.04,0.27,0.00,-0.11,-0.10,
17:25:29:053,0.15,0.06,0.16,0.00,-0.11,-0.10,
17:25:29:058,0.09,0.11,0.13,0.00,-0.11,-0.10,
17:25:29:058,0.09,0.11,0.13,-0.00,-0.11,-0.10,
17:25:29:064,-0.04,0.17,0.13,-0.00,-0.11,-0.10,
17:25:29:064,-0.04,0.17,0.13,-0.00,-0.12,-0.10,
17:25:29:068,-0.04,0.17,0.13,-0.01,-0.12,-0.10,
17:25:29:068,-0.13,0.20,0.07,-0.01,-0.12,-0.10,
17:25:29:073,-0.13,0.20,0.07,-0.01,-0.11,-0.09,
17:25:29:073,0.01,0.14,0.13,-0.01,-0.11,-0.09,
17:25:29:077,0.01,0.14,0.13,-0.01,-0.11,-0.09,
17:25:29:078,-0.08,0.37,0.01,-0.01,-0.11,-0.09,
17:25:29:082,-0.08,0.37,0.01,-0.01,-0.08,-0.08,
17:25:29:083,-0.03,0.61,-0.22,-0.01,-0.08,-0.08,
17:25:29:088,-0.03,0.61,-0.22,-0.01,-0.02,-0.07,
17:25:29:089,0.22,0.54,-0.22,-0.01,-0.02,-0.07,
17:25:29:092,0.22,0.54,-0.22,-0.00,0.02,-0.06,
17:25:29:093,0.29,0.33,-0.03,-0.00,0.02,-0.06,
17:25:29:096,0.29,0.33,-0.03,-0.00,0.03,-0.05,
17:25:29:097,0.13,0.08,0.16,-0.00,0.03,-0.05,
17:25:29:101,0.13,0.08,0.16,-0.00,0.01,-0.05,
17:25:29:102,-0.10,-0.11,0.40,-0.00,0.01,-0.05,
17:25:29:106,-0.20,-0.25,0.48,-0.00,0.01,-0.05,
17:25:29:107,-0.20,-0.25,0.48,-0.01,-0.03,-0.06,
17:25:29:112,-0.20,-0.25,0.48,-0.01,-0.06,-0.07,
17:25:29:112,-0.20,-0.23,0.44,-0.01,-0.06,-0.07,
17:25:29:116,-0.20,-0.23,0.44,-0.01,-0.09,-0.08,
17:25:29:116,-0.20,-0.02,0.37,-0.01,-0.09,-0.08,
17:25:29:121,-0.20,-0.02,0.37,-0.01,-0.11,-0.09,
17:25:29:121,-0.29,0.26,0.34,-0.01,-0.11,-0.09,
17:25:29:126,-0.34,0.51,0.20,-0.01,-0.11,-0.09,
17:25:29:126,-0.34,0.51,0.20,-0.01,-0.13,-0.09,
17:25:29:131,-0.35,0.77,0.09,-0.01,-0.13,-0.09,
17:25:29:131,-0.35,0.77,0.09,-0.00,-0.14,-0.07,
17:25:29:135,-0.63,1.40,0.03,-0.00,-0.14,-0.07,
17:25:29:136,-0.63,1.40,0.03,0.00,-0.12,-0.04,
17:25:29:140,-0.63,1.40,0.03,0.00,-0.11,0.01,
17:25:29:141,-0.11,1.10,-0.11,0.00,-0.11,0.01,
17:25:29:146,-0.11,1.10,-0.11,-0.02,-0.08,0.02,
17:25:29:146,0.98,-0.56,-0.33,-0.02,-0.08,0.02,
17:25:29:150,0.98,-0.56,-0.33,-0.03,-0.01,-0.02,
17:25:29:150,0.54,-0.96,-0.50,-0.03,-0.01,-0.02,
17:25:29:155,-0.38,-0.31,-0.25,-0.03,-0.01,-0.02,
17:25:29:155,-0.38,-0.31,-0.25,-0.02,0.05,-0.03,
17:25:29:160,-0.38,-0.31,-0.25,-0.00,0.05,0.01,
17:25:29:161,-0.43,0.17,-0.22,-0.00,0.05,0.01,
17:25:29:165,-0.43,0.17,-0.22,-0.01,0.04,0.03,
17:25:29:166,0.09,0.01,-0.26,-0.01,0.04,0.03,
17:25:29:170,0.09,0.01,-0.26,-0.02,0.06,0.01,
17:25:29:171,0.22,-0.13,0.05,-0.02,0.06,0.01,
17:25:29:175,0.22,-0.13,0.05,-0.02,0.05,0.00,
17:25:29:176,-0.04,-0.04,0.24,-0.02,0.05,0.00,
17:25:29:179,-0.03,0.05,0.30,-0.02,0.05,0.00,
17:25:29:180,-0.03,0.05,0.30,-0.01,0.03,0.01,
17:25:29:184,-0.03,0.05,0.30,-0.01,0.02,0.02,
17:25:29:185,0.32,-0.11,0.32,-0.01,0.02,0.02,
17:25:29:189,0.32,-0.11,0.32,-0.01,0.00,-0.00,
17:25:29:190,0.37,-0.04,0.41,-0.01,0.00,-0.00,
17:25:29:194,0.37,-0.04,0.41,-0.01,-0.03,-0.03,
17:25:29:195,-0.01,0.22,0.35,-0.01,-0.03,-0.03,
17:25:29:198,-0.01,0.22,0.35,-0.00,-0.05,-0.03,
17:25:29:199,-0.35,0.42,0.20,-0.00,-0.05,-0.03,
17:25:29:203,-0.51,0.70,0.01,-0.00,-0.05,-0.03,
17:25:29:204,-0.51,0.70,0.01,0.01,-0.07,-0.03,
17:25:29:208,-0.13,0.37,0.04,0.01,-0.07,-0.03,
17:25:29:208,-0.13,0.37,0.04,0.01,-0.07,-0.02,
17:25:29:213,0.12,-0.08,0.13,0.01,-0.07,-0.02,
17:25:29:213,0.12,-0.08,0.13,0.00,-0.09,-0.03,
17:25:29:218,0.12,-0.08,0.13,-0.00,-0.12,-0.05,
17:25:29:219,-0.13,-0.21,0.14,-0.00,-0.12,-0.05,
17:25:29:223,-0.13,-0.21,0.14,-0.00,-0.13,-0.06,
17:25:29:223,-0.28,-0.16,0.14,-0.00,-0.13,-0.06,
17:25:29:228,-0.28,-0.16,0.14,-0.00,-0.14,-0.05,
17:25:29:228,-0.30,0.26,0.15,-0.00,-0.14,-0.05,
17:25:29:234,-0.30,0.26,0.15,-0.00,-0.14,-0.05,
17:25:29:235,-0.09,0.28,0.07,-0.00,-0.14,-0.05,
17:25:29:266,-0.09,0.28,0.07,-0.01,-0.14,-0.04,
17:25:29:267,0.07,0.41,0.12,-0.01,-0.14,-0.04,
17:25:29:268,0.07,0.41,0.12,-0.02,-0.13,-0.03,
17:25:29:268,0.44,-0.12,0.24,-0.02,-0.13,-0.03,
17:25:29:268,0.44,-0.12,0.24,-0.03,-0.13,-0.04,
17:25:29:269,0.35,-0.31,0.22,-0.03,-0.13,-0.04,
17:25:29:269,0.35,-0.31,0.22,-0.03,-0.13,-0.05,
17:25:29:270,0.16,-0.30,0.22,-0.03,-0.13,-0.05,
17:25:29:270,0.16,-0.30,0.22,-0.03,-0.13,-0.06,
17:25:29:271,0.08,0.50,0.32,-0.03,-0.13,-0.06,
17:25:29:272,0.08,0.50,0.32,-0.03,-0.14,-0.04,
17:25:29:272,0.17,0.43,0.25,-0.03,-0.14,-0.04,
17:25:29:273,0.17,0.43,0.25,-0.03,-0.16,-0.04,
17:25:29:273,0.05,-0.03,0.16,-0.03,-0.16,-0.04,
17:25:29:273,0.05,-0.03,0.16,-0.04,-0.18,-0.06,
17:25:29:274,-0.07,-0.36,0.05,-0.04,-0.18,-0.06,
17:25:29:276,-0.07,-0.36,0.05,-0.05,-0.19,-0.08,
17:25:29:277,-0.54,-0.29,-0.13,-0.05,-0.19,-0.08,
17:25:29:282,-0.54,-0.29,-0.13,-0.05,-0.19,-0.10,
17:25:29:282,-0.82,-0.13,-0.06,-0.05,-0.19,-0.10,
17:25:29:286,-0.82,-0.13,-0.06,-0.06,-0.22,-0.10,
17:25:29:287,-0.86,-0.05,0.11,-0.06,-0.22,-0.10,
17:25:29:292,-0.86,-0.05,0.11,-0.07,-0.26,-0.10,
17:25:29:293,-0.78,-0.00,0.22,-0.07,-0.26,-0.10,
17:25:29:298,-0.78,-0.00,0.22,-0.07,-0.30,-0.11,
17:25:29:299,-0.49,-0.27,0.20,-0.07,-0.30,-0.11,
17:25:29:300,-0.20,-0.12,0.21,-0.07,-0.30,-0.11,
17:25:29:301,-0.20,-0.12,0.21,-0.08,-0.32,-0.11,
17:25:29:308,0.05,-0.04,0.19,-0.08,-0.32,-0.11,
17:25:29:309,0.05,-0.04,0.19,-0.08,-0.32,-0.12,
17:25:29:310,0.14,0.09,0.04,-0.08,-0.32,-0.12,
17:25:29:311,0.14,0.09,0.04,-0.08,-0.30,-0.11,
