Timestamp,gx,gy,gz,ax,ay,az
2020-12-01 18:30:34.3600,0.19448505342006686,-1.183463454246521,3.4610755443573,0.3708343505859375,1.0810089111328125,-0.01495361328125
2020-12-01 18:30:34.3760,0.3492850363254547,-1.0596901178359983,3.2734363079071045,0.328094482421875,1.0594940185546875,0.018585205078125
2020-12-01 18:30:34.3950,0.4211328625679016,-0.7932145595550537,3.1094026565551762,0.35577392578125,0.9974517822265624,0.0561370849609375
2020-12-01 18:30:34.4260,0.3505241870880127,-0.3731701076030731,2.991468667984009,0.34405517578125,0.9416351318359376,0.0720367431640625
2020-12-01 18:30:34.4430,0.17746692895889282,-0.4909614622592926,2.7388689517974854,0.3280181884765625,0.91180419921875,0.071075439453125
2020-12-01 18:30:34.4600,0.17746692895889282,-0.4909614622592926,2.7388689517974854,0.3411712646484375,0.9942626953125,0.01904296875
2020-12-01 18:30:34.4760,-0.002559564076364041,-0.4111638367176056,2.4435243606567383,0.347991943359375,1.20947265625,-0.05712890625
2020-12-01 18:30:34.5090,0.494520515203476,-0.0907679870724678,1.9648733139038088,0.295501708984375,1.3876190185546875,-0.1393585205078125
2020-12-01 18:30:34.5260,0.7362343668937683,-0.06550710648298264,1.6150943040847778,0.178375244140625,1.29022216796875,-0.14678955078125
2020-12-01 18:30:34.5430,0.7362343668937683,-0.06550710648298264,1.6150943040847778,0.1719207763671875,1.0455780029296875,-0.1492767333984375
2020-12-01 18:30:34.5600,0.6056323647499084,0.08318863064050674,1.373179912567139,0.1695709228515625,1.0528564453125,-0.1282806396484375
2020-12-01 18:30:34.5760,0.5301008820533752,0.3304106593132019,1.1949251890182495,0.1695709228515625,1.0528564453125,-0.1282806396484375
2020-12-01 18:30:34.6090,0.7464424967765808,0.2666647136211395,0.07683033496141434,-0.0189056396484375,1.6597747802734375,-0.0931854248046875
2020-12-01 18:30:34.6260,0.4815445244312286,0.3275485634803772,-0.773995578289032,-0.105804443359375,1.645782470703125,-0.014892578125
2020-12-01 18:30:34.6430,0.4815445244312286,0.3275485634803772,-0.773995578289032,-0.13006591796875,1.2620849609375,-0.047149658203125
2020-12-01 18:30:34.6600,0.019767845049500462,0.4715281128883362,-1.531410813331604,-0.0570831298828125,1.2303619384765625,-0.0464324951171875
2020-12-01 18:30:34.6760,-0.41734716296195984,0.5685039162635803,-2.2519454956054688,-0.0570831298828125,1.2303619384765625,-0.0464324951171875
2020-12-01 18:30:34.7090,-0.5445424318313599,0.16188104450702667,-2.3987951278686523,0.1719512939453125,1.1539306640625,-0.1562957763671875
2020-12-01 18:30:34.7260,-0.553287148475647,-0.13787557184696198,-2.2461283206939697,0.228179931640625,0.9749755859375,-0.154632568359375
2020-12-01 18:30:34.7430,-0.553287148475647,-0.13787557184696198,-2.2461283206939697,0.2975616455078125,0.821807861328125,-0.1614990234375
2020-12-01 18:30:34.7600,-0.5801776051521301,-0.39804935455322266,-1.9876952171325684,0.279449462890625,0.73565673828125,-0.176727294921875
2020-12-01 18:30:34.7760,-0.5091316699981691,-0.5770268440246582,-1.7790975570678709,0.279449462890625,0.73565673828125,-0.176727294921875
2020-12-01 18:30:34.8090,-0.4597686529159546,-0.4266727566719055,-1.757493257522583,0.19512939453125,0.6046905517578125,-0.104949951171875
2020-12-01 18:30:34.8270,-0.472698837518692,-0.0712512731552124,-1.737632155418396,0.178741455078125,0.5879669189453125,-0.089111328125
2020-12-01 18:30:34.8430,-0.472698837518692,-0.0712512731552124,-1.737632155418396,0.174652099609375,0.6285400390625,-0.088043212890625
2020-12-01 18:30:34.8600,-0.491307944059372,0.18665936589241028,-1.7896029949188232,0.1767120361328125,0.7233428955078125,-0.1000823974609375
2020-12-01 18:30:34.8760,-0.43321719765663147,0.3514011800289154,-1.9302871227264404,0.1767120361328125,0.7233428955078125,-0.1000823974609375
2020-12-01 18:30:34.9090,-0.4169250428676605,0.3143480718135834,-2.508657455444336,0.2271728515625,0.93414306640625,-0.134002685546875
2020-12-01 18:30:34.9270,-0.4741625189781189,0.34747222065925604,-2.617208480834961,0.2745208740234375,0.97723388671875,-0.134735107421875
2020-12-01 18:30:34.9430,-0.4741625189781189,0.34747222065925604,-2.617208480834961,0.323455810546875,0.9935150146484376,-0.1447296142578125
2020-12-01 18:30:34.9600,-0.5606662631034851,0.4789681732654572,-2.6522741317749023,0.3653717041015625,1.0371246337890625,-0.1835174560546875
2020-12-01 18:30:34.9760,-0.5940479040145874,0.5995116233825684,-2.6983604431152344,0.3653717041015625,1.0371246337890625,-0.1835174560546875
2020-12-01 18:30:35.0090,-0.19593408703804016,0.9073339104652404,-2.8086612224578857,0.4107666015625,1.320648193359375,-0.212371826171875
2020-12-01 18:30:35.0260,-0.19593408703804016,0.9073339104652404,-2.8086612224578857,0.4387054443359375,1.5042572021484375,-0.20330810546875
2020-12-01 18:30:35.0440,0.029513416811823845,1.0375806093215942,-2.8150327205657963,0.48895263671875,1.5355224609375,-0.169403076171875
2020-12-01 18:30:35.0600,0.1211855486035347,1.4114487171173096,-2.665395736694336,0.5284576416015625,1.41522216796875,-0.090789794921875
2020-12-01 18:30:35.0770,0.10289549082517624,1.7549965381622314,-2.4115798473358154,0.5284576416015625,1.41522216796875,-0.090789794921875
2020-12-01 18:30:35.1090,-0.2447871118783951,1.5328692197799685,-1.8611704111099243,0.625152587890625,1.409881591796875,-0.1133575439453125
2020-12-01 18:30:35.1270,-0.2447871118783951,1.5328692197799685,-1.8611704111099243,0.7071380615234375,1.5261993408203125,-0.207305908203125
2020-12-01 18:30:35.1430,-0.22608186304569244,0.7685182690620422,-1.6727261543273926,0.8168182373046875,1.6441802978515625,-0.27410888671875
2020-12-01 18:30:35.1600,0.08231884241104126,-0.16405364871025085,-1.4213032722473145,0.8168182373046875,1.6441802978515625,-0.27410888671875
2020-12-01 18:30:35.1770,0.42278853058815,-0.7332468032836914,-0.7851161360740662,0.8899993896484375,1.5287017822265625,-0.2467803955078125
2020-12-01 18:30:35.1950,0.4779705703258514,-0.9441646337509156,0.2434355616569519,0.913787841796875,1.2397308349609375,-0.1683197021484375
2020-12-01 18:30:35.2260,0.3244827389717102,-1.0843420028686523,1.2378721237182615,0.717071533203125,0.9975433349609376,-0.0615692138671875
2020-12-01 18:30:35.2430,0.17470256984233856,-1.2912960052490234,1.8160420656204224,0.602294921875,1.05609130859375,-0.05712890625
2020-12-01 18:30:35.2600,0.05039739236235618,-1.5159698724746704,2.095255136489868,0.602294921875,1.05609130859375,-0.05712890625
2020-12-01 18:30:35.2760,0.02531814016401768,-1.6008375883102417,2.338470220565796,0.550994873046875,1.0388031005859375,-0.06817626953125
2020-12-01 18:30:35.3090,0.2890294194221497,-1.584687352180481,2.866626262664795,0.4473724365234375,0.9114532470703124,-0.107757568359375
2020-12-01 18:30:35.3260,0.2890294194221497,-1.584687352180481,2.866626262664795,0.372833251953125,0.852447509765625,-0.09417724609375
2020-12-01 18:30:35.3430,0.4736916720867157,-1.430081844329834,3.031071901321411,0.31298828125,0.818359375,-0.0936737060546875
2020-12-01 18:30:35.3600,0.5062456130981445,-1.2978289127349854,3.0701684951782227,0.31298828125,0.818359375,-0.0936737060546875
2020-12-01 18:30:35.3770,0.5895426273345947,-1.006319880485535,3.0929775238037114,0.29730224609375,0.8027801513671875,-0.05047607421875
2020-12-01 18:30:35.3950,0.6056656837463379,-0.5643214583396912,3.281936883926392,0.355743408203125,0.8086700439453125,-0.00927734375
2020-12-01 18:30:35.4260,0.5910339951515198,-0.17398111522197726,3.5613856315612797,0.41827392578125,0.944732666015625,0.027374267578125
2020-12-01 18:30:35.4430,0.5959491133689879,0.15138046443462372,3.7366552352905273,0.3523712158203125,1.0203399658203125,0.0376434326171875
2020-12-01 18:30:35.4600,0.5744372010231018,0.30213189125061035,3.6758098602294917,0.3523712158203125,1.0203399658203125,0.0376434326171875
2020-12-01 18:30:35.4770,0.5277820825576782,0.3190134167671204,3.455306053161621,0.316162109375,1.0747833251953125,0.04345703125
2020-12-01 18:30:35.5090,0.44262269139289856,0.14258430898189545,3.182002067565918,0.33740234375,1.1436614990234375,0.0066680908203125
2020-12-01 18:30:35.5260,0.3602330088615417,-0.06983847171068193,2.932566404342652,0.29541015625,1.1670379638671875,0.0049896240234375
2020-12-01 18:30:35.5430,0.2946199178695679,-0.12483327835798265,2.664713144302368,0.240447998046875,1.206756591796875,-0.0045013427734375
2020-12-01 18:30:35.5600,0.27528536319732666,-0.10100011527538301,2.3570189476013184,0.240447998046875,1.206756591796875,-0.0045013427734375
2020-12-01 18:30:35.5770,0.2931330800056457,-0.14175473153591156,1.9617257118225095,0.2178802490234375,1.2623443603515625,-0.0428009033203125
2020-12-01 18:30:35.6090,0.26192083954811096,-0.35950011014938354,1.481547713279724,0.2332000732421875,1.146881103515625,-0.109375
2020-12-01 18:30:35.6270,0.2500346004962921,-0.5269817709922789,1.2090789079666138,0.2169036865234375,1.1535186767578125,-0.0803070068359375
2020-12-01 18:30:35.6430,0.3570635914802551,-0.4802944362163544,1.113441824913025,0.1285400390625,1.2755279541015625,-0.0442962646484375
2020-12-01 18:30:35.6600,0.46627476811409,-0.2474169880151749,0.7954438924789429,0.1285400390625,1.2755279541015625,-0.0442962646484375
2020-12-01 18:30:35.6760,0.3744417726993561,-0.09510254859924316,0.0872209221124649,0.020172119140625,1.396026611328125,-0.0132598876953125
2020-12-01 18:30:35.6950,0.08665633201599121,0.15773290395736694,-0.7383030652999878,-0.019287109375,1.4344024658203125,0.004119873046875
2020-12-01 18:30:35.7270,-0.3106159269809723,0.3872542381286621,-1.3959486484527588,0.1641998291015625,1.3521270751953125,-0.066650390625
2020-12-01 18:30:35.7430,-0.5940697193145752,0.5279003381729126,-1.80352520942688,0.1641998291015625,1.3521270751953125,-0.066650390625
2020-12-01 18:30:35.7600,-0.6332653760910034,0.5655885934829712,-1.976736068725586,0.1955718994140625,1.246795654296875,-0.1358642578125
2020-12-01 18:30:35.7760,-0.5876954793930054,0.5386008620262146,-2.0610175132751465,0.1942596435546875,1.0910797119140625,-0.1631011962890625
2020-12-01 18:30:35.8090,-0.5349233150482178,0.4850849211215973,-2.070481538772583,0.31561279296875,0.8168182373046875,-0.202667236328125
2020-12-01 18:30:35.8260,-0.4738144278526306,0.2343704253435135,-1.947370171546936,0.3123931884765625,0.7138214111328125,-0.21954345703125
2020-12-01 18:30:35.8430,-0.3839894831180573,0.020658940076828003,-1.7588727474212646,0.3123931884765625,0.7138214111328125,-0.21954345703125
2020-12-01 18:30:35.8600,-0.3168916702270508,-0.026881149038672447,-1.6324565410614014,0.2440948486328125,0.588836669921875,-0.1862945556640625
2020-12-01 18:30:35.8760,-0.2563159465789795,0.1865136921405792,-1.687346339225769,0.15240478515625,0.5094146728515625,-0.1690826416015625
2020-12-01 18:30:35.8960,-0.15628041326999664,0.5018056035041809,-1.896852135658264,0.09130859375,0.491668701171875,-0.153472900390625
2020-12-01 18:30:35.9260,-0.037564419209957116,0.8530754446983337,-2.122750997543335,0.0943603515625,0.645782470703125,-0.0933685302734375
2020-12-01 18:30:35.9430,0.09144868701696396,1.6787105798721311,-2.284435272216797,0.0943603515625,0.645782470703125,-0.0933685302734375
2020-12-01 18:30:35.9600,0.18828947842121124,2.204145193099976,-2.4557080268859863,0.1427764892578125,0.7423553466796875,-0.0171966552734375
2020-12-01 18:30:35.9770,0.1660856455564499,2.2194454669952397,-2.5797839164733887,0.2648162841796875,0.8518218994140625,-0.033447265625
2020-12-01 18:30:35.9950,0.13743935525417328,1.851631760597229,-2.4914374351501465,0.4043121337890625,0.91412353515625,-0.0274200439453125
2020-12-01 18:30:36.0260,0.1081637516617775,1.1137064695358276,-2.4156110286712646,0.5947418212890625,1.202117919921875,-0.1076202392578125
2020-12-01 18:30:36.0430,0.0709383562207222,0.4012808501720429,-2.341768503189087,0.5947418212890625,1.202117919921875,-0.1076202392578125
2020-12-01 18:30:36.0600,0.07228964567184447,-0.07241693884134293,-2.0140039920806885,0.6382904052734375,1.3636932373046875,-0.1299896240234375
2020-12-01 18:30:36.0770,0.1000344529747963,-0.05818421021103859,-1.8404272794723509,0.5107421875,1.38916015625,-0.10400390625
2020-12-01 18:30:36.0960,0.07675550132989882,0.20976868271827695,-1.8655142784118648,0.3974151611328125,1.4148101806640625,-0.0760498046875
2020-12-01 18:30:36.1260,0.03671247512102127,0.44730880856513977,-2.055032968521118,0.327728271484375,1.4790191650390625,-0.0982208251953125
2020-12-01 18:30:36.1430,-0.11425413936376573,0.6131893992424011,-2.2435901165008545,0.327728271484375,1.4790191650390625,-0.0982208251953125
2020-12-01 18:30:36.1600,-0.2143743485212326,0.7603455185890198,-2.116628170013428,0.3847503662109375,1.3509368896484375,-0.103851318359375
2020-12-01 18:30:36.1770,-0.18773101270198825,0.6448631286621094,-1.9259514808654783,0.4290008544921875,1.37158203125,-0.136138916015625
2020-12-01 18:30:36.1960,-0.09587512910366057,0.2755380868911743,-1.8489810228347776,0.477813720703125,1.4069366455078125,-0.1847991943359375
2020-12-01 18:30:36.2260,0.004724713973701,-0.1830347925424576,-1.6371567249298096,0.572357177734375,1.3894500732421875,-0.2197723388671875
2020-12-01 18:30:36.2430,0.13575810194015506,-0.4321974813938141,-1.158255100250244,0.6632232666015625,1.351165771484375,-0.2199859619140625
2020-12-01 18:30:36.2600,0.2318830341100693,-0.5293421149253845,-0.5641299486160278,0.6696624755859375,1.2465667724609375,-0.17669677734375
2020-12-01 18:30:36.2770,0.19151216745376587,-0.5972354412078857,-0.02982713840901852,0.642059326171875,1.0811767578125,-0.1198272705078125
2020-12-01 18:30:36.2960,0.08689867705106735,-0.7584049105644226,0.390731006860733,0.6394500732421875,0.9520721435546876,-0.0824432373046875
2020-12-01 18:30:36.3260,0.05384751781821251,-1.1141984462738037,0.7186348438262941,0.6192169189453125,0.8910064697265625,-0.0731964111328125
2020-12-01 18:30:36.3430,0.07791183888912201,-1.4401618242263794,0.9702553749084472,0.612091064453125,0.8721771240234375,-0.0710296630859375
2020-12-01 18:30:36.3600,0.13851234316825867,-1.7042553424835205,1.2381006479263306,0.5777740478515625,0.8867034912109375,-0.0766754150390625
2020-12-01 18:30:36.3760,0.20972180366516116,-1.5263822078704834,1.664417028427124,0.5290679931640625,0.84295654296875,-0.0805511474609375
2020-12-01 18:30:36.3960,0.34658563137054443,-1.0066714286804201,2.0638577938079834,0.4564971923828125,0.7421875,-0.128936767578125
2020-12-01 18:30:36.4270,0.5305453538894653,-0.5781256556510925,2.244448661804199,0.3935546875,0.649566650390625,-0.1508026123046875
2020-12-01 18:30:36.4430,0.6124133467674255,-0.4513530731201172,2.227294445037842,0.362396240234375,0.595703125,-0.148895263671875
2020-12-01 18:30:36.4600,0.5184780359268188,-0.4958419799804688,2.319484233856201,0.4063262939453125,0.611541748046875,-0.1026611328125
2020-12-01 18:30:36.4770,0.4687392413616181,-0.3630434572696686,2.5387206077575684,0.4449615478515625,0.655181884765625,-0.06927490234375
2020-12-01 18:30:36.5090,0.3953960537910461,-0.3871993720531464,2.660397291183472,0.420196533203125,0.7964324951171875,-0.008148193359375
2020-12-01 18:30:36.5270,0.3755893409252167,-0.33918550610542303,2.6160144805908203,0.420196533203125,0.7964324951171875,-0.008148193359375
2020-12-01 18:30:36.5430,0.343697190284729,-0.1451052576303482,2.568443775177002,0.4512939453125,0.89105224609375,0.0119171142578125
2020-12-01 18:30:36.5600,0.31675106287002563,-0.08215159177780151,2.6038339138031006,0.505706787109375,0.99200439453125,-0.013031005859375
2020-12-01 18:30:36.5770,0.2408288568258285,-0.06216297298669815,2.7489774227142334,0.5604248046875,1.12554931640625,-0.032806396484375
2020-12-01 18:30:36.6090,0.1804994642734528,-0.08880337327718735,2.854688882827759,0.5381927490234375,1.5304412841796875,-0.08026123046875
2020-12-01 18:30:36.6260,0.1303899586200714,-0.19867154955863955,2.7049882411956787,0.5381927490234375,1.5304412841796875,-0.08026123046875
2020-12-01 18:30:36.6430,0.08720547705888748,-0.16786330938339233,2.596925973892212,0.4902496337890625,1.66741943359375,-0.100494384765625
2020-12-01 18:30:36.6600,0.1006789430975914,-0.1614493429660797,2.6546545028686523,0.509552001953125,1.5817108154296875,-0.1242523193359375
2020-12-01 18:30:36.6770,0.1006789430975914,-0.1614493429660797,2.6546545028686523,0.470001220703125,1.469818115234375,-0.1641998291015625
2020-12-01 18:30:36.6960,0.17618274688720706,-0.32179880142211914,2.5821301937103267,0.3394622802734375,1.482513427734375,-0.1502685546875
2020-12-01 18:30:36.7260,0.41811603307724,-0.3284503221511841,2.0584535598754883,0.214874267578125,1.5502777099609375,-0.096038818359375
2020-12-01 18:30:36.7430,0.28754976391792303,-0.2051086723804474,1.5624995231628418,0.1142578125,1.50750732421875,-0.0473175048828125
2020-12-01 18:30:36.7600,-0.00999377854168415,-0.01686872914433479,1.0370301008224487,0.1234283447265625,1.3766326904296875,-0.0163421630859375
2020-12-01 18:30:36.7760,-0.00999377854168415,-0.01686872914433479,1.0370301008224487,0.166534423828125,1.312286376953125,-0.0328216552734375
2020-12-01 18:30:36.8090,-0.3597206175327301,0.2199142575263977,0.3525532484054565,0.145294189453125,1.3149566650390625,-0.0959930419921875
2020-12-01 18:30:36.8260,-0.12216345965862276,0.4414410591125488,0.05177424848079682,0.0087432861328125,1.17279052734375,-0.1141815185546875
2020-12-01 18:30:36.8430,-0.03083434514701366,0.4866801798343658,-0.3768455386161804,-0.058990478515625,0.9927215576171876,-0.105072021484375
2020-12-01 18:30:36.8600,-0.2099977135658264,0.3147787153720856,-0.7245081663131714,0.006744384765625,0.827423095703125,-0.11175537109375
2020-12-01 18:30:36.8770,-0.2099977135658264,0.3147787153720856,-0.7245081663131714,0.1116790771484375,0.6783294677734375,-0.0984039306640625
2020-12-01 18:30:36.9090,-0.480846256017685,-0.2067907303571701,-0.7286384701728821,0.1531524658203125,0.5152130126953125,-0.1116943359375
2020-12-01 18:30:36.9260,-0.3675822615623474,-0.3970144689083099,-0.6221224069595337,0.1349334716796875,0.373382568359375,-0.115478515625
2020-12-01 18:30:36.9430,-0.2456558346748352,-0.5437213778495789,-0.7464140057563782,0.059417724609375,0.325592041015625,-0.0950164794921875
2020-12-01 18:30:36.9600,-0.2612033784389496,-0.5849502682685852,-1.0233843326568604,-0.0242767333984375,0.388092041015625,-0.0908203125
2020-12-01 18:30:36.9770,-0.2612033784389496,-0.5849502682685852,-1.0233843326568604,-0.0442047119140625,0.454681396484375,-0.0731353759765625
2020-12-01 18:30:36.9960,-0.3219956159591675,-0.4482470154762268,-1.295488357543945,-0.0270233154296875,0.502471923828125,-0.067657470703125
2020-12-01 18:30:37.0260,-0.2777799367904663,-0.049686595797538764,-1.6685506105422974,-0.01031494140625,0.5725555419921875,-0.091949462890625
2020-12-01 18:30:37.0430,-0.2213486284017563,0.13482466340065002,-1.9495161771774288,0.01251220703125,0.6867523193359375,-0.0972137451171875
2020-12-01 18:30:37.0600,-0.19841162860393524,0.2250578850507736,-2.257235288619995,0.0720062255859375,0.8179168701171875,-0.1054534912109375
2020-12-01 18:30:37.0770,-0.19841162860393524,0.2250578850507736,-2.257235288619995,0.1685791015625,0.9492645263671876,-0.091766357421875
2020-12-01 18:30:37.0960,-0.2254650741815567,0.3825889229774475,-2.475807905197144,0.2561492919921875,1.0769805908203125,-0.07818603515625
2020-12-01 18:30:37.1270,-0.4725688695907593,0.5544978380203247,-2.439651727676392,0.2989349365234375,1.19329833984375,-0.0916595458984375
2020-12-01 18:30:37.1430,-0.5339009165763855,0.7124509811401367,-2.5010533332824707,0.31915283203125,1.3539581298828125,-0.0985107421875
2020-12-01 18:30:37.1600,-0.5339009165763855,0.7124509811401367,-2.5010533332824707,0.342926025390625,1.5386199951171875,-0.13836669921875
2020-12-01 18:30:37.1760,-0.5000199675559998,0.7741098403930664,-2.7560200691223145,0.34832763671875,1.63726806640625,-0.1629791259765625
2020-12-01 18:30:37.1960,-0.4280725121498108,0.9843876957893372,-3.038026094436645,0.4104461669921875,1.6239166259765625,-0.1755218505859375
2020-12-01 18:30:37.2260,-0.013798636384308338,1.6255391836166382,-2.9764420986175537,0.4654388427734375,1.57659912109375,-0.1325225830078125
2020-12-01 18:30:37.2430,0.058656919747591026,1.7029393911361694,-2.8052780628204346,0.46563720703125,1.587371826171875,-0.101837158203125
2020-12-01 18:30:37.2600,0.058656919747591026,1.7029393911361694,-2.8052780628204346,0.5112762451171875,1.69342041015625,-0.096038818359375
2020-12-01 18:30:37.2770,0.0062440475448966035,1.7391510009765625,-2.663784980773926,0.532135009765625,1.788482666015625,-0.1112823486328125
2020-12-01 18:30:37.2960,0.0252025593072176,1.621981501579285,-2.551741123199463,0.555755615234375,1.745758056640625,-0.1196441650390625
2020-12-01 18:30:37.3260,0.34622451663017273,1.0805269479751587,-2.0921649932861333,0.558502197265625,1.548126220703125,-0.127685546875
2020-12-01 18:30:37.3440,0.28745388984680176,0.7320438623428345,-1.6566054821014404,0.5424957275390625,1.2949981689453125,-0.1352081298828125
2020-12-01 18:30:37.3600,0.28745388984680176,0.7320438623428345,-1.6566054821014404,0.5455169677734375,1.124786376953125,-0.1021728515625
2020-12-01 18:30:37.3760,0.1860779970884323,0.4839480221271515,-1.0138100385665894,0.5037078857421875,1.0484466552734375,-0.102783203125
2020-12-01 18:30:37.3960,0.20591694116592407,0.2871595919132233,-0.4276163280010224,0.4123382568359375,0.968963623046875,-0.07281494140625
2020-12-01 18:30:37.4250,0.15704341232776642,0.10959067940711976,-0.011922972276806831,0.3636932373046875,0.8326873779296875,-0.0385284423828125
2020-12-01 18:30:37.4430,0.024288294836878777,-0.045525405555963516,0.10374503582715988,0.37408447265625,0.6894683837890625,-0.0322418212890625
2020-12-01 18:30:37.4600,0.024288294836878777,-0.045525405555963516,0.10374503582715988,0.389617919921875,0.5330352783203125,-0.03509521484375
2020-12-01 18:30:37.4770,-0.12618643045425415,-0.18967166543006894,0.3756697475910187,0.376434326171875,0.420745849609375,-0.0587921142578125
2020-12-01 18:30:37.4960,-0.23060524463653564,-0.3860915005207062,0.6183465719223022,0.3620452880859375,0.3719940185546875,-0.09295654296875
2020-12-01 18:30:37.5270,-0.056520268321037286,-0.6452295780181885,0.7850335836410522,0.328460693359375,0.361358642578125,-0.0985107421875
2020-12-01 18:30:37.5440,0.11265171319246292,-0.7462664842605591,0.8447195291519165,0.307464599609375,0.3668975830078125,-0.0844573974609375
2020-12-01 18:30:37.5600,0.11265171319246292,-0.7462664842605591,0.8447195291519165,0.2960205078125,0.368621826171875,-0.0627593994140625
2020-12-01 18:30:37.5770,0.20006464421749115,-0.7739785313606262,0.9256343841552734,0.27862548828125,0.4139556884765625,-0.0244293212890625
2020-12-01 18:30:37.5960,0.20680058002471924,-0.6926554441452026,0.9710423350334167,0.261505126953125,0.5268402099609375,0.0156402587890625
2020-12-01 18:30:37.6260,0.09621894359588624,-0.5113348960876465,0.8083857893943787,0.2549591064453125,0.6833648681640625,0.0437164306640625
2020-12-01 18:30:37.6440,-0.053926881402730935,-0.4991003572940826,0.6381975412368774,0.27874755859375,0.8451995849609375,0.031402587890625
2020-12-01 18:30:37.6600,-0.053926881402730935,-0.4991003572940826,0.6381975412368774,0.3273773193359375,0.9922332763671876,-0.0055084228515625
2020-12-01 18:30:37.6770,-0.18202173709869385,-0.5787016749382019,0.5245316624641418,0.4052734375,1.1814727783203125,-0.0635833740234375
2020-12-01 18:30:37.6960,-0.1399690806865692,-0.6122167706489563,0.5474430918693542,0.4810943603515625,1.3900909423828125,-0.1149749755859375
2020-12-01 18:30:37.7270,0.2976601719856262,-0.9371320009231568,1.2547459602355957,0.5048065185546875,1.5239715576171875,-0.13995361328125
2020-12-01 18:30:37.7430,0.35893046855926514,-0.7845483422279358,1.6232914924621582,0.4643707275390625,1.4810638427734375,-0.1282958984375
2020-12-01 18:30:37.7600,0.35893046855926514,-0.7845483422279358,1.6232914924621582,0.45037841796875,1.5473175048828125,-0.1041717529296875
2020-12-01 18:30:37.7770,0.4253219962120056,-0.4890786111354828,1.9701378345489504,0.433746337890625,1.7564239501953125,-0.0791778564453125
2020-12-01 18:30:37.8090,0.4124554693698883,0.2233223021030426,2.522911071777344,0.3709869384765625,1.8910980224609373,-0.038543701171875
2020-12-01 18:30:37.8270,0.13587553799152374,0.354199081659317,2.6370131969451904,0.33123779296875,1.880889892578125,-0.0630035400390625
2020-12-01 18:30:37.8430,0.13587553799152374,0.354199081659317,2.6370131969451904,0.36163330078125,1.7390594482421875,-0.1078643798828125
2020-12-01 18:30:37.8600,-0.2220421135425568,0.35763058066368103,2.788449764251709,0.3563385009765625,1.690826416015625,-0.1537933349609375
2020-12-01 18:30:37.8770,-0.3003265261650085,0.3431120812892914,2.9507803916931152,0.2936248779296875,1.73419189453125,-0.16497802734375
2020-12-01 18:30:37.8960,-0.107639379799366,0.2001546621322632,3.069323301315308,0.2936248779296875,1.73419189453125,-0.16497802734375
2020-12-01 18:30:37.9260,0.16049380600452426,-0.4288911819458008,2.7965164184570312,0.042755126953125,1.2351226806640625,-0.159332275390625
2020-12-01 18:30:37.9430,0.16049380600452426,-0.4288911819458008,2.7965164184570312,0.0128173828125,0.9653778076171876,-0.09344482421875
2020-12-01 18:30:37.9600,-0.08144132792949678,-0.6935880780220032,2.5015132427215576,0.03717041015625,0.8211669921875,-0.0702056884765625
2020-12-01 18:30:37.9770,-0.30661240220069885,-0.92192804813385,2.3724229335784908,0.03717041015625,0.8211669921875,-0.0702056884765625
2020-12-01 18:30:37.9950,-0.4553707242012024,-0.995981514453888,2.269782543182373,-0.02703857421875,0.670562744140625,-0.0659332275390625
2020-12-01 18:30:38.0260,-0.3340775668621063,-1.1088688373565674,1.635509014129639,-0.1295928955078125,0.4515380859375,-0.1044769287109375
2020-12-01 18:30:38.0430,-0.3340775668621063,-1.1088688373565674,1.635509014129639,-0.1136016845703125,0.459014892578125,-0.0938568115234375
2020-12-01 18:30:38.0600,-0.20382237434387207,-1.0126150846481323,1.2199416160583496,-0.0352630615234375,0.5039520263671875,-0.07708740234375
2020-12-01 18:30:38.0770,-0.1287667602300644,-0.8932058215141296,1.037216067314148,-0.0352630615234375,0.5039520263671875,-0.07708740234375
2020-12-01 18:30:38.0960,-0.16654103994369507,-0.812106728553772,0.9862399101257324,0.052642822265625,0.54290771484375,-0.10235595703125
2020-12-01 18:30:38.1270,0.13174551725387573,-0.5765717029571533,0.8069295287132263,0.1474456787109375,0.6418914794921875,-0.1813507080078125
2020-12-01 18:30:38.1430,0.13174551725387573,-0.5765717029571533,0.8069295287132263,0.0930023193359375,0.7339324951171875,-0.16314697265625
2020-12-01 18:30:38.1600,0.3148210644721985,-0.3805268406867981,0.5331541895866394,0.0493621826171875,0.765289306640625,-0.13861083984375
2020-12-01 18:30:38.1770,0.2932150959968567,-0.12104599922895433,0.15199671685695648,0.0493621826171875,0.765289306640625,-0.13861083984375
2020-12-01 18:30:38.1950,0.11612074822187425,0.19102029502391812,-0.2337528318166733,0.0633087158203125,0.7718963623046875,-0.1244659423828125
2020-12-01 18:30:38.2260,-0.1922525316476822,0.6816076040267944,-0.9334217309951782,0.125091552734375,0.8892669677734375,-0.1314239501953125
2020-12-01 18:30:38.2430,-0.1922525316476822,0.6816076040267944,-0.9334217309951782,0.14031982421875,0.9483489990234376,-0.154815673828125
2020-12-01 18:30:38.2600,-0.2345930635929108,0.7551584839820862,-1.37337327003479,0.1820526123046875,0.960968017578125,-0.156585693359375
2020-12-01 18:30:38.2760,-0.232038289308548,0.7499759793281555,-1.81345796585083,0.1820526123046875,0.960968017578125,-0.156585693359375
2020-12-01 18:30:38.3090,-0.3456602096557617,0.8538525700569153,-2.1935975551605225,0.36688232421875,0.994903564453125,-0.12030029296875
2020-12-01 18:30:38.3270,-0.3456602096557617,0.8538525700569153,-2.1935975551605225,0.4102020263671875,1.1466217041015625,-0.113311767578125
2020-12-01 18:30:38.3430,-0.4003527462482453,0.8084166646003723,-2.1542859077453613,0.401214599609375,1.4393310546875,-0.1313323974609375
2020-12-01 18:30:38.3600,-0.23491691052913666,0.6559831500053406,-2.386172294616699,0.3386688232421875,1.8166961669921875,-0.170928955078125
2020-12-01 18:30:38.3760,-0.04843997210264206,0.42203059792518616,-3.222637176513672,0.3386688232421875,1.8166961669921875,-0.170928955078125
2020-12-01 18:30:38.3960,0.04957208037376404,0.36347755789756775,-3.867267608642578,0.377655029296875,1.958221435546875,-0.094390869140625
2020-12-01 18:30:38.4270,-0.004878644831478596,0.34228119254112244,-3.899889707565308,0.6310272216796875,1.6491546630859375,-0.07489013671875
2020-12-01 18:30:38.4430,-0.07805351912975311,0.4534553587436676,-3.744440078735352,0.6282501220703125,1.677642822265625,-0.055908203125
2020-12-01 18:30:38.4600,-0.1860838532447815,0.6512882709503174,-3.473435878753662,0.6282501220703125,1.677642822265625,-0.055908203125
2020-12-01 18:30:38.4760,-0.26355892419815063,0.8259314894676208,-3.1816256046295166,0.688568115234375,1.580322265625,-0.0616455078125
2020-12-01 18:30:38.4960,-0.2285309135913849,0.4240764379501343,-2.8665692806243896,0.6996002197265625,1.2861175537109375,-0.106353759765625
2020-12-01 18:30:38.5270,-0.2785189747810364,-0.10791607946157457,-2.208072662353516,0.7064666748046875,0.7591094970703125,-0.0385894775390625
2020-12-01 18:30:38.5430,-0.4263997972011566,-0.6906822919845581,-1.3348774909973145,0.5883636474609375,0.6114654541015625,-0.0341949462890625
2020-12-01 18:30:38.5600,-0.5945855975151062,-1.1831002235412598,-0.8897051215171814,0.5883636474609375,0.6114654541015625,-0.0341949462890625
2020-12-01 18:30:38.5770,-0.802388072013855,-1.097906231880188,-0.7191935777664185,0.451873779296875,0.52777099609375,-0.113525390625
2020-12-01 18:30:38.5960,-0.4829549491405487,-0.2521113455295563,-0.43238043785095215,0.3768310546875,0.4845428466796875,-0.194366455078125
2020-12-01 18:30:38.6270,0.12041030079126358,0.7690119743347168,-0.2247585505247116,0.1392059326171875,0.493499755859375,-0.0397796630859375
2020-12-01 18:30:38.6430,0.5541726350784302,1.4104825258255005,-0.4549355506896973,0.104339599609375,0.4520111083984375,-0.0193328857421875
2020-12-01 18:30:38.6600,0.5398634672164917,1.5126286745071411,-1.1184320449829102,0.104339599609375,0.4520111083984375,-0.0193328857421875
2020-12-01 18:30:38.6770,0.24530082941055295,1.4591344594955444,-1.5237973928451538,0.24224853515625,0.4982147216796875,0.0273895263671875
2020-12-01 18:30:38.6960,-0.06379655748605728,1.3694645166397097,-1.3259685039520264,0.4315185546875,0.5663604736328125,0.0514373779296875
2020-12-01 18:30:38.7270,-0.21505744755268094,1.0705363750457764,-0.8501449227333069,0.55401611328125,0.73199462890625,-0.0333404541015625
2020-12-01 18:30:38.7430,-0.1759318858385086,0.6180395483970642,-0.6575525999069214,0.5597686767578125,0.927001953125,-0.0856475830078125
2020-12-01 18:30:38.7600,-0.020835774019360542,0.16618071496486664,-0.6227333545684814,0.5597686767578125,0.927001953125,-0.0856475830078125
2020-12-01 18:30:38.7770,0.19308556616306305,-0.13370347023010254,-0.35454875230789185,0.6082763671875,1.174163818359375,-0.09832763671875
2020-12-01 18:30:38.7960,0.3163702189922333,-0.2703254818916321,0.2623892724514008,0.633270263671875,1.3647003173828125,-0.094940185546875
2020-12-01 18:30:38.8270,0.2261263430118561,-0.3015662431716919,0.8402310609817505,0.561981201171875,1.309326171875,-0.0966949462890625
2020-12-01 18:30:38.8440,0.08402406424283981,-0.20066305994987488,1.244715690612793,0.4907684326171875,1.326202392578125,-0.08935546875
2020-12-01 18:30:38.8600,0.06274434179067613,0.031062578782439232,1.6270846128463743,0.4907684326171875,1.326202392578125,-0.08935546875
2020-12-01 18:30:38.8770,0.1424705982208252,0.1937745362520218,1.9275437593460083,0.4381256103515625,1.545135498046875,-0.0745697021484375
2020-12-01 18:30:38.8960,0.12282312661409378,0.052924200892448425,2.032604455947876,0.4227752685546875,1.78662109375,-0.0981597900390625
2020-12-01 18:30:38.9270,-0.1045495793223381,-0.05475698783993721,2.1246893405914307,0.449432373046875,1.5018310546875,-0.152740478515625
2020-12-01 18:30:38.9440,-0.3725352287292481,-0.18862797319889069,2.5720303058624268,0.52191162109375,1.5399017333984375,-0.1868743896484375
2020-12-01 18:30:38.9600,-0.3716776967048645,-0.3654527962207794,3.204729557037353,0.52191162109375,1.5399017333984375,-0.1868743896484375
2020-12-01 18:30:38.9770,-0.1450333595275879,-0.666254997253418,3.681926250457764,0.4629364013671875,1.6256103515625,-0.1700439453125
2020-12-01 18:30:38.9960,0.03699343651533127,-1.0333144664764404,3.8159906864166264,0.35345458984375,1.564300537109375,-0.1308441162109375
2020-12-01 18:30:39.0270,0.032216791063547134,-1.3911999464035034,3.7508835792541504,0.2223358154296875,1.1922454833984375,-0.0439453125
2020-12-01 18:30:39.0440,-0.10924286395311356,-1.4846779108047483,3.606022357940674,0.2223358154296875,1.1922454833984375,-0.0439453125
2020-12-01 18:30:39.0600,-0.23895879089832306,-1.336854100227356,3.4898040294647217,0.21246337890625,1.0920562744140625,-0.05078125
2020-12-01 18:30:39.0770,-0.16956692934036255,-1.1033835411071775,3.459771156311035,0.20037841796875,1.017669677734375,-0.09344482421875
2020-12-01 18:30:39.0960,0.07528836280107498,-0.7609700560569763,3.5028557777404785,0.1642608642578125,0.9468994140625,-0.086029052734375
2020-12-01 18:30:39.1270,0.2745407521724701,-0.4372159540653229,3.4514896869659424,0.083709716796875,0.787506103515625,-0.063507080078125
2020-12-01 18:30:39.1440,0.35789716243743896,-0.2402765154838562,3.2565853595733643,0.083709716796875,0.787506103515625,-0.063507080078125
2020-12-01 18:30:39.1600,0.37700000405311584,-0.2279500812292099,2.9495728015899663,0.076324462890625,0.724212646484375,-0.051025390625
2020-12-01 18:30:39.1770,0.29437464475631714,-0.4078415334224701,2.539970874786377,0.08935546875,0.67779541015625,-0.05352783203125
2020-12-01 18:30:39.1960,0.20523810386657715,-0.4630874991416931,2.1903548240661617,0.0732421875,0.639007568359375,-0.028045654296875
2020-12-01 18:30:39.2270,0.14633403718471527,-0.3354107439517975,1.881550669670105,-0.006378173828125,0.543487548828125,0.0021820068359375
2020-12-01 18:30:39.2440,0.09074348211288452,-0.09011524170637132,1.4931105375289917,-0.006378173828125,0.543487548828125,0.0021820068359375
2020-12-01 18:30:39.2600,0.06791193783283234,0.14769092202186584,0.9521679878234864,-0.0185089111328125,0.5055084228515625,-0.001251220703125
2020-12-01 18:30:39.2770,-0.004457332659512757,0.23614169657230374,0.2265508472919464,0.00225830078125,0.4954681396484375,-0.0196685791015625
2020-12-01 18:30:39.2960,-0.20442503690719604,0.15606923401355746,-0.4900245666503906,0.1002655029296875,0.55242919921875,-0.0637969970703125
2020-12-01 18:30:39.3270,-0.2519073486328125,0.1895012259483337,-0.9282066822052002,0.3512420654296875,0.7430572509765625,-0.1820220947265625
2020-12-01 18:30:39.3440,-0.11157393455505372,0.35990703105926514,-0.9447110891342164,0.3512420654296875,0.7430572509765625,-0.1820220947265625
2020-12-01 18:30:39.3600,-0.013832724653184414,0.6186432838439941,-1.0066837072372437,0.3509521484375,0.7396240234375,-0.19866943359375
2020-12-01 18:30:39.3770,-0.03150120005011558,0.8894090056419373,-1.387877106666565,0.3421173095703125,0.713104248046875,-0.2108154296875
2020-12-01 18:30:39.3960,0.024470189586281776,1.0692524909973145,-1.8465962409973145,0.3471527099609375,0.8260040283203125,-0.2058868408203125
2020-12-01 18:30:39.4270,0.11265357583761215,0.9920597076416016,-2.40889048576355,0.307403564453125,1.5565032958984375,-0.1759185791015625
2020-12-01 18:30:39.4440,0.3891426920890808,0.34286946058273315,-3.1480596065521236,0.307403564453125,1.5565032958984375,-0.1759185791015625
2020-12-01 18:30:39.4600,0.28356486558914185,-0.09082018584012984,-3.727593421936035,0.313629150390625,1.8932952880859373,-0.081390380859375
2020-12-01 18:30:39.4770,-0.05884094536304474,-0.016885772347450256,-3.957528114318848,0.414794921875,1.6658782958984375,0.037811279296875
2020-12-01 18:30:39.4960,-0.4021269381046295,0.059163454920053475,-4.0939531326293945,0.4662322998046875,1.5629730224609375,0.0268096923828125
2020-12-01 18:30:39.5270,-0.3676041066646576,0.243168979883194,-3.986918449401856,0.3200225830078125,1.8112335205078125,0.0089111328125
2020-12-01 18:30:39.5440,-0.009666209109127522,0.3986523151397705,-3.673609733581543,0.3200225830078125,1.8112335205078125,0.0089111328125
2020-12-01 18:30:39.5600,0.1452581286430359,0.5384453535079956,-3.519456386566162,0.286834716796875,1.5986785888671875,0.0191650390625
2020-12-01 18:30:39.5770,-0.0392664447426796,0.557842493057251,-3.6286211013793945,0.316680908203125,1.3275299072265625,-0.015380859375
2020-12-01 18:30:39.5960,-0.258263498544693,0.6578269004821777,-3.582951307296753,0.357086181640625,1.1690521240234375,0.0070037841796875
2020-12-01 18:30:39.6270,-0.33783289790153503,0.6503700613975525,-3.3093748092651367,0.4068603515625,1.0919952392578125,-0.022491455078125
2020-12-01 18:30:39.6430,-0.305298388004303,0.4805884659290314,-3.180912494659424,0.4365692138671875,1.0467071533203125,-0.0446624755859375
2020-12-01 18:30:39.6600,-0.20929090678691864,-0.03145432844758034,-3.097455739974976,0.4614715576171875,1.01611328125,-0.045745849609375
2020-12-01 18:30:39.6770,-0.20988239347934726,-0.3350040912628174,-2.8342089653015137,0.5094451904296875,0.899810791015625,-0.0914764404296875
2020-12-01 18:30:39.6960,-0.12913428246974945,-0.4077659249305725,-2.4310994148254395,0.524322509765625,0.8179168701171875,-0.0965728759765625
2020-12-01 18:30:39.7270,0.03162077814340592,-0.28941610455513,-2.054794311523437,0.4323272705078125,0.8123779296875,-0.0522003173828125
2020-12-01 18:30:39.7430,0.11997807025909425,-0.004217648413032293,-1.8610789775848389,0.315826416015625,0.815185546875,-0.0185699462890625
2020-12-01 18:30:39.7600,0.04643141478300095,0.2357105314731598,-1.9890995025634768,0.2428131103515625,0.8320465087890625,-0.021820068359375
2020-12-01 18:30:39.7770,0.025901904329657555,0.4468201100826264,-1.998298406600952,0.2268829345703125,0.93218994140625,-0.0201263427734375
2020-12-01 18:30:39.7960,0.025901904329657555,0.4468201100826264,-1.998298406600952,0.206817626953125,1.029876708984375,-0.0110931396484375
2020-12-01 18:30:39.8270,0.0760233923792839,0.5362634062767029,-1.822598218917847,0.1793060302734375,1.06195068359375,-0.01141357421875
2020-12-01 18:30:39.8440,-0.08671651780605316,0.4162302315235138,-1.955449461936951,0.1904144287109375,1.0720977783203125,-0.0330810546875
2020-12-01 18:30:39.8600,-0.05415111780166626,0.5184311866760254,-1.8156439065933228,0.2382659912109375,1.1640777587890625,-0.0638885498046875
2020-12-01 18:30:39.8770,0.14571112394332886,0.6506233215332031,-1.5344675779342651,0.3042755126953125,1.2686767578125,-0.0685272216796875
2020-12-01 18:30:39.8960,0.14571112394332886,0.6506233215332031,-1.5344675779342651,0.33697509765625,1.2137908935546875,-0.0894622802734375
2020-12-01 18:30:39.9270,0.24112872779369354,0.6712380051612854,-1.0212889909744265,0.3429412841796875,1.06390380859375,-0.089569091796875
2020-12-01 18:30:39.9440,0.22115768492221832,0.6432726979255676,-0.5542107224464417,0.398193359375,1.0546722412109375,-0.0520477294921875
2020-12-01 18:30:39.9600,0.050922837108373635,0.5474106073379517,0.019351594150066376,0.464630126953125,1.075164794921875,-0.048553466796875
2020-12-01 18:30:39.9770,0.050922837108373635,0.5474106073379517,0.019351594150066376,0.54888916015625,1.08990478515625,-0.090667724609375
2020-12-01 18:30:39.9960,-0.2407186031341553,0.3520936071872711,0.6473777294158936,0.64703369140625,1.1505279541015625,-0.1556396484375
2020-12-01 18:30:40.0270,-0.3764974772930145,-0.8416089415550232,2.306160688400269,0.728515625,1.2525177001953125,-0.2717132568359375
2020-12-01 18:30:40.0440,0.02507579140365124,-1.5431729555130005,3.2869434356689453,0.7038726806640625,1.34326171875,-0.2663116455078125
2020-12-01 18:30:40.0600,0.3067271709442139,-2.1668133735656743,3.8402278423309326,0.559417724609375,1.338287353515625,-0.21893310546875
2020-12-01 18:30:40.0770,0.3067271709442139,-2.1668133735656743,3.8402278423309326,0.4556427001953125,1.3199005126953125,-0.15045166015625
2020-12-01 18:30:40.0960,0.2897258400917053,-2.537102699279785,4.059031486511231,0.4060516357421875,1.35894775390625,-0.0901641845703125
2020-12-01 18:30:40.1270,0.24056467413902285,-1.6003419160842896,4.786336898803711,0.3428497314453125,1.404815673828125,-0.0579833984375
2020-12-01 18:30:40.1440,0.3527977466583252,-0.986654818058014,4.947057723999023,0.2623443603515625,1.39923095703125,-0.0537567138671875
2020-12-01 18:30:40.1600,0.4344057738780975,-0.5541215538978577,4.947405815124512,0.2023468017578125,1.317657470703125,-0.0417633056640625
2020-12-01 18:30:40.1770,0.4344057738780975,-0.5541215538978577,4.947405815124512,0.1952056884765625,1.269622802734375,-0.0204010009765625
2020-12-01 18:30:40.1960,0.4613210260868073,-0.2916510105133057,4.788937568664551,0.2004241943359375,1.2702789306640625,-0.0419158935546875
2020-12-01 18:30:40.2270,0.3309880495071411,-0.728193998336792,4.406236171722412,0.2863311767578125,1.3588714599609375,-0.0696258544921875
2020-12-01 18:30:40.2440,0.3766340911388397,-0.8189095258712769,4.288560867309569,0.3214111328125,1.4404296875,-0.0431365966796875
2020-12-01 18:30:40.2600,0.4832795858383178,-0.7567902207374573,4.098156452178955,0.26580810546875,1.391845703125,-0.0106353759765625
2020-12-01 18:30:40.2770,0.4832795858383178,-0.7567902207374573,4.098156452178955,0.247344970703125,1.2872314453125,0.01483154296875
2020-12-01 18:30:40.2960,0.44702595472335815,-0.5495901703834534,3.926756381988525,0.3139190673828125,1.262451171875,-0.0377960205078125
2020-12-01 18:30:40.3270,0.4015655517578125,-0.31405192613601685,3.551137208938598,0.31304931640625,1.254058837890625,-0.066680908203125
2020-12-01 18:30:40.3440,0.4650334715843201,-0.07166805863380432,3.2984001636505127,0.294952392578125,1.22808837890625,-0.0520172119140625
2020-12-01 18:30:40.3600,0.4092775285243988,-0.02057318575680256,2.8946166038513184,0.25823974609375,1.2166900634765625,-0.051361083984375
2020-12-01 18:30:40.3770,0.4092775285243988,-0.02057318575680256,2.8946166038513184,0.2021026611328125,1.171661376953125,-0.05267333984375
2020-12-01 18:30:40.3960,0.2885734736919403,0.06478805094957353,2.455379009246826,0.171478271484375,1.048980712890625,-0.0389404296875
2020-12-01 18:30:40.4270,0.05550720170140266,0.26401379704475403,1.7042540311813354,0.1712646484375,0.9120025634765624,-0.0426177978515625
2020-12-01 18:30:40.4440,-0.11973811686038972,0.22195397317409515,1.338229060173035,0.174224853515625,0.766265869140625,-0.0502166748046875
2020-12-01 18:30:40.4600,-0.2437300980091095,0.17065535485744476,0.9139603972434998,0.1612396240234375,0.652130126953125,-0.0525360107421875
2020-12-01 18:30:40.4770,-0.2437300980091095,0.17065535485744476,0.9139603972434998,0.187774658203125,0.6954498291015625,-0.0523681640625
2020-12-01 18:30:40.4960,-0.28493401408195496,0.24079956114292145,0.2958503067493439,0.2078399658203125,0.9053802490234376,-0.0572662353515625
2020-12-01 18:30:40.5270,-0.12089446187019348,0.24100781977176666,-1.4377069473266602,0.189697265625,1.10040283203125,-0.0666961669921875
2020-12-01 18:30:40.5440,-0.058100320398807526,0.20972339808940887,-2.320169687271118,0.2113800048828125,1.1584014892578125,-0.0600433349609375
2020-12-01 18:30:40.5600,-0.058100320398807526,0.20972339808940887,-2.320169687271118,0.3240814208984375,1.0459442138671875,-0.0136871337890625
2020-12-01 18:30:40.5770,-0.12863308191299438,0.3818578720092773,-2.8071036338806152,0.4122314453125,1.0251007080078125,-0.022735595703125
2020-12-01 18:30:40.5960,-0.22214385867118835,0.5605786442756653,-2.9783287048339844,0.4300079345703125,1.11395263671875,-0.07183837890625
2020-12-01 18:30:40.6270,-0.15028856694698334,0.34103456139564514,-3.401228427886963,0.414794921875,1.1387786865234375,-0.107269287109375
2020-12-01 18:30:40.6440,-0.13753469288349152,-0.014919827692210674,-3.584294080734253,0.433624267578125,1.0756683349609375,-0.1337432861328125
2020-12-01 18:30:40.6600,-0.13753469288349152,-0.014919827692210674,-3.584294080734253,0.4445343017578125,0.9848785400390624,-0.1309051513671875
2020-12-01 18:30:40.6770,-0.17359043657779696,-0.1900559514760971,-3.5298609733581543,0.4232025146484375,0.9168701171875,-0.12005615234375
2020-12-01 18:30:40.6960,-0.24977761507034305,-0.22672076523303986,-3.4257276058197017,0.3818511962890625,0.8823394775390625,-0.1256561279296875
2020-12-01 18:30:40.7270,-0.2501419186592102,0.17857161164283752,-3.34836483001709,0.3387603759765625,0.887603759765625,-0.1312408447265625
2020-12-01 18:30:40.7440,-0.08553966879844667,0.41288822889328,-3.3617312908172607,0.322021484375,0.9203033447265624,-0.1374664306640625
2020-12-01 18:30:40.7600,-0.08553966879844667,0.41288822889328,-3.3617312908172607,0.35638427734375,0.9404449462890624,-0.1352386474609375
2020-12-01 18:30:40.7770,0.10636904835700987,0.6154837012290955,-3.3220853805541988,0.4092864990234375,0.9474639892578124,-0.1009368896484375
2020-12-01 18:30:40.7960,0.2527371942996979,0.8781629800796509,-3.1362404823303223,0.44964599609375,0.98907470703125,-0.0679473876953125
2020-12-01 18:30:40.8270,0.5747042894363403,1.591358304023743,-2.5686135292053223,0.4287567138671875,1.0727081298828125,0.007568359375
2020-12-01 18:30:40.8440,0.6043628454208374,1.901364088058472,-2.473674297332764,0.4047088623046875,1.1445159912109375,0.0496368408203125
2020-12-01 18:30:40.8600,0.6043628454208374,1.901364088058472,-2.473674297332764,0.4170074462890625,1.24932861328125,0.0609130859375
2020-12-01 18:30:40.8770,0.5272944569587708,1.916476011276245,-2.4184672832489014,0.4416351318359375,1.3675537109375,0.053375244140625
2020-12-01 18:30:40.8960,0.5140494704246521,1.8406765460968015,-2.2886314392089844,0.3504638671875,1.39788818359375,0.0521087646484375
2020-12-01 18:30:40.9270,0.3668823838233948,1.2551664113998413,-2.3394932746887207,0.2389373779296875,1.302093505859375,0.0498199462890625
2020-12-01 18:30:40.9430,0.10950172692537308,0.7195741534233093,-2.6023166179656982,0.1915435791015625,1.2913360595703125,0.0189971923828125
2020-12-01 18:30:40.9600,0.10950172692537308,0.7195741534233093,-2.6023166179656982,0.233245849609375,1.4429168701171875,-0.0881805419921875
2020-12-01 18:30:40.9770,-0.034049846231937415,0.06291504949331284,-2.689990758895874,0.2517547607421875,1.6072235107421875,-0.1342926025390625
2020-12-01 18:30:40.9960,0.1228305846452713,-0.4709318280220032,-2.5621659755706787,0.204254150390625,1.71575927734375,-0.0854644775390625
2020-12-01 18:30:41.0270,0.12399837374687195,-0.6775332093238831,-2.243399381637573,0.207916259765625,1.573150634765625,-0.0813446044921875
2020-12-01 18:30:41.0440,-0.306228369474411,-0.2666492760181427,-1.8256983757019043,0.291351318359375,1.2906494140625,-0.073699951171875
2020-12-01 18:30:41.0600,-0.306228369474411,-0.2666492760181427,-1.8256983757019043,0.4012451171875,1.1373443603515625,-0.102203369140625
2020-12-01 18:30:41.0770,-0.3689596652984619,0.3175230920314789,-1.0185552835464478,0.353179931640625,1.0277557373046875,-0.117401123046875
2020-12-01 18:30:41.0960,-0.16090738773345947,0.445955365896225,-0.4487972259521485,0.353179931640625,1.0277557373046875,-0.117401123046875
2020-12-01 18:30:41.1270,-0.20579524338245392,-0.7119452357292175,-0.3472048342227936,0.37921142578125,0.675323486328125,-0.155914306640625
2020-12-01 18:30:41.1440,-0.20579524338245392,-0.7119452357292175,-0.3472048342227936,0.4896240234375,0.5771026611328125,-0.1530914306640625
2020-12-01 18:30:41.1600,-0.3496642708778381,-0.8790959119796753,0.1413813680410385,0.495452880859375,0.53863525390625,-0.1844940185546875
2020-12-01 18:30:41.1770,-0.2829691171646118,-0.590274453163147,0.8398009538650513,0.3534698486328125,0.5187835693359375,-0.159088134765625
2020-12-01 18:30:41.1960,-0.018351044505834583,-0.06170544028282165,1.237489938735962,0.3534698486328125,0.5187835693359375,-0.159088134765625
2020-12-01 18:30:41.2270,0.11529889702796935,0.4737334847450256,0.7516955733299255,0.146942138671875,0.5461273193359375,-0.1186065673828125
2020-12-01 18:30:41.2440,0.11529889702796935,0.4737334847450256,0.7516955733299255,0.2874603271484375,0.5966949462890625,-0.129669189453125
2020-12-01 18:30:41.2610,-0.09427510201931,0.4047240614891052,0.5720009207725525,0.4521636962890625,0.641998291015625,-0.16448974609375
2020-12-01 18:30:41.2770,-0.19725102186203006,0.27945321798324585,0.8004751205444336,0.4521636962890625,0.641998291015625,-0.16448974609375
2020-12-01 18:30:41.2960,-0.13137346506118774,0.09227986633777617,1.2026909589767456,0.5336151123046875,0.69403076171875,-0.20367431640625
2020-12-01 18:30:41.3270,0.044687576591968536,-0.08090204000473022,1.6381356716156006,0.48248291015625,0.786102294921875,-0.1922149658203125
2020-12-01 18:30:41.3440,0.044687576591968536,-0.08090204000473022,1.6381356716156006,0.4685211181640625,0.821014404296875,-0.1374969482421875
2020-12-01 18:30:41.3600,-0.0004135889175813645,-0.0644112154841423,1.7362899780273438,0.4668731689453125,0.8647613525390625,-0.1186676025390625
2020-12-01 18:30:41.3770,-0.1309489607810974,-0.16762414574623108,1.7901898622512815,0.4668731689453125,0.8647613525390625,-0.1186676025390625
2020-12-01 18:30:41.3960,-0.2738952040672302,-0.257592648267746,1.8709843158721924,0.4882659912109375,0.9212646484375,-0.1030426025390625
2020-12-01 18:30:41.4270,-0.3018360137939453,-0.2838530242443085,2.3441474437713623,0.566741943359375,1.19635009765625,-0.135009765625
2020-12-01 18:30:41.4440,-0.3018360137939453,-0.2838530242443085,2.3441474437713623,0.57269287109375,1.405242919921875,-0.1399078369140625
2020-12-01 18:30:41.4600,-0.20943471789360046,-0.3676275610923767,2.6329610347747803,0.5351715087890625,1.510894775390625,-0.137298583984375
2020-12-01 18:30:41.4770,-0.25152891874313354,-0.44187673926353455,2.929948091506958,0.5351715087890625,1.510894775390625,-0.137298583984375
2020-12-01 18:30:41.4960,-0.3493452072143555,-0.607373058795929,3.1884572505950928,0.4831085205078125,1.43994140625,-0.094146728515625
2020-12-01 18:30:41.5270,-0.3658309876918793,-1.4212284088134766,3.2753467559814453,0.529754638671875,2.158187866210937,-0.1063079833984375
2020-12-01 18:30:41.5440,-0.3658309876918793,-1.4212284088134766,3.2753467559814453,0.4079132080078125,2.67254638671875,-0.11480712890625
2020-12-01 18:30:41.5610,-0.26733821630477905,-1.6106635332107544,3.1338105201721187,0.2799835205078125,2.4995269775390625,-0.0003662109375
2020-12-01 18:30:41.5780,-0.055202003568410866,-1.309036135673523,3.153528451919556,0.2799835205078125,2.4995269775390625,-0.0003662109375
2020-12-01 18:30:41.5960,-0.0029073730111122127,-0.8669089674949646,3.0758841037750244,0.1910400390625,2.075958251953125,0.020050048828125
2020-12-01 18:30:41.6270,-0.06623122096061708,-0.5397524237632751,2.8632216453552246,0.133331298828125,1.6623992919921875,-0.0091705322265625
2020-12-01 18:30:41.6440,-0.035085547715425484,-0.2980042695999145,2.683077812194824,0.1336822509765625,1.413970947265625,-0.0335693359375
2020-12-01 18:30:41.6600,0.07715896517038345,-0.1323828101158142,2.545466661453247,0.0434722900390625,1.1410064697265625,-0.049652099609375
2020-12-01 18:30:41.6770,0.28458166122436523,-0.2025989145040512,2.45979642868042,0.0434722900390625,1.1410064697265625,-0.049652099609375
2020-12-01 18:30:41.6960,0.19555166363716125,0.09161700308322906,2.421022891998291,-0.10748291015625,0.7969207763671875,-0.026336669921875
2020-12-01 18:30:41.7270,-0.029076924547553062,0.42768341302871693,2.2215445041656494,-0.15252685546875,0.6229248046875,0.00457763671875
2020-12-01 18:30:41.7440,-0.14427515864372253,0.5248355269432068,1.7527730464935305,-0.1043548583984375,0.5390777587890625,0.0026702880859375
2020-12-01 18:30:41.7600,-0.1885153204202652,0.3876356184482575,1.324072003364563,-0.1043548583984375,0.5390777587890625,0.0026702880859375
2020-12-01 18:30:41.7770,-0.15503272414207458,0.12115997821092606,1.1669303178787231,-0.00299072265625,0.4664459228515625,-0.00531005859375
2020-12-01 18:30:41.7960,-0.07684125006198883,-0.08841108530759811,1.1752828359603882,0.044036865234375,0.417510986328125,-0.0184783935546875
2020-12-01 18:30:41.8270,0.005518069956451654,-0.216923788189888,1.0079931020736694,-0.0901947021484375,0.4492340087890625,-0.005401611328125
2020-12-01 18:30:41.8440,0.08182509243488313,-0.2328460365533829,0.4635530114173889,-0.1262359619140625,0.5367889404296875,-0.00299072265625
2020-12-01 18:30:41.8600,0.15508146584033966,-0.2060205489397049,-0.2844546437263489,-0.1262359619140625,0.5367889404296875,-0.00299072265625
2020-12-01 18:30:41.8770,0.21277911961078644,-0.11528744548559187,-0.9288413524627686,-0.1025543212890625,0.61273193359375,0.0060882568359375
2020-12-01 18:30:41.8960,0.20773588120937347,0.058355983346700675,-1.3576557636260986,-0.0230255126953125,0.646514892578125,0.012847900390625
2020-12-01 18:30:41.9270,0.15885382890701294,0.26718881726264954,-1.6639728546142578,0.0716552734375,0.7302093505859375,0.012786865234375
2020-12-01 18:30:41.9440,0.12100285291671753,0.480397492647171,-1.983894109725952,0.0895538330078125,0.8246002197265625,-0.0087432861328125
2020-12-01 18:30:41.9600,0.16274790465831754,0.6941598653793335,-2.3277759552001958,0.0895538330078125,0.8246002197265625,-0.0087432861328125
2020-12-01 18:30:41.9770,0.26606923341751104,0.8325254321098328,-2.6910994052886963,0.0976409912109375,0.95989990234375,-0.017242431640625
2020-12-01 18:30:41.9960,0.3050592541694641,0.7242988348007202,-3.1067180633544917,0.1188507080078125,1.1067657470703125,-0.0519561767578125
2020-12-01 18:30:42.0270,0.2438595294952393,0.5268710255622864,-3.455328226089477,0.20703125,1.354339599609375,-0.100006103515625
2020-12-01 18:30:42.0440,0.24798929691314694,0.5493334531784058,-3.5997037887573238,0.2252655029296875,1.471649169921875,-0.1070098876953125
2020-12-01 18:30:42.0600,0.4170640707015991,0.4040143191814423,-3.697169303894043,0.2252655029296875,1.471649169921875,-0.1070098876953125
2020-12-01 18:30:42.0770,0.5538485646247864,0.3210909366607666,-4.038754940032959,0.2064056396484375,1.67816162109375,-0.0639190673828125
2020-12-01 18:30:42.0960,0.4688375294208527,0.13236869871616366,-4.716506004333496,0.1268463134765625,2.0695343017578125,-0.0274200439453125
2020-12-01 18:30:42.1280,0.2001328319311142,0.08980472385883331,-5.268511295318604,0.3658294677734375,2.6551666259765625,0.0096893310546875
2020-12-01 18:30:42.1450,-0.1242138296365738,0.2936843335628509,-5.202345371246338,0.52581787109375,2.2760009765625,-0.0765533447265625
2020-12-01 18:30:42.1610,-0.2450499683618545,0.4913319051265717,-4.679083347320557,0.52581787109375,2.2760009765625,-0.0765533447265625
2020-12-01 18:30:42.1770,-0.1606655716896057,0.6279909610748291,-3.728239297866821,0.6341094970703125,1.949920654296875,-0.1592864990234375
2020-12-01 18:30:42.1960,-0.02625264227390289,0.8150109052658081,-2.657377004623413,0.6639556884765625,1.6602325439453125,-0.1659698486328125
2020-12-01 18:30:42.2270,0.14385570585727692,0.5021622180938721,-1.9354819059371948,0.513641357421875,0.8740692138671875,-0.2397003173828125
2020-12-01 18:30:42.2440,-0.09200449287891388,0.22506268322467804,-1.696006178855896,0.4432830810546875,0.766937255859375,-0.1611480712890625
2020-12-01 18:30:42.2600,-0.2690043151378632,0.08078885823488235,-1.2348660230636597,0.4432830810546875,0.766937255859375,-0.1611480712890625
2020-12-01 18:30:42.2770,-0.304583877325058,0.251091867685318,-0.7427676320075989,0.37103271484375,0.6569061279296875,-0.163238525390625
2020-12-01 18:30:42.2960,-0.3112638890743256,0.5133189558982849,-0.6188427209854126,0.269378662109375,0.485565185546875,-0.0991668701171875
2020-12-01 18:30:42.3270,-0.17270386219024658,0.8435078263282776,-0.8881250619888306,0.2510986328125,0.43487548828125,-0.157135009765625
2020-12-01 18:30:42.3440,0.08624833822250366,0.99846088886261,-1.3260456323623655,0.2510986328125,0.43487548828125,-0.157135009765625
2020-12-01 18:30:42.3600,0.3075269162654877,0.6806421875953674,-1.5475200414657593,0.323028564453125,0.522674560546875,-0.1960906982421875
2020-12-01 18:30:42.3770,0.5211364030838013,0.5529835820198059,-1.3032066822052002,0.350860595703125,0.550079345703125,-0.1453399658203125
2020-12-01 18:30:42.4100,0.5810213088989258,0.6054244041442871,-0.8998141884803772,0.47802734375,0.6787567138671875,-0.0328826904296875
2020-12-01 18:30:42.4270,0.4778571128845215,0.7760464549064636,-0.6893352866172789,0.4557647705078125,0.83966064453125,-0.03704833984375
2020-12-01 18:30:42.4440,0.3075524866580963,0.9110130667686462,-0.6161692142486572,0.4557647705078125,0.83966064453125,-0.03704833984375
2020-12-01 18:30:42.4600,0.19723983108997345,0.8325451612472534,-0.447407603263855,0.507537841796875,0.839752197265625,-0.061553955078125
2020-12-01 18:30:42.4770,0.10484518855810164,0.4146355390548706,-0.12329956144094467,0.555023193359375,0.723419189453125,-0.105194091796875
2020-12-01 18:30:42.4960,0.04002811014652252,-0.056342635303735726,0.3319595754146576,0.596954345703125,0.76934814453125,-0.143035888671875
2020-12-01 18:30:42.5270,0.06657689809799194,-0.42612573504447937,0.8758808970451355,0.5864105224609375,1.1084442138671875,-0.120086669921875
2020-12-01 18:30:42.5440,0.04841253906488418,-0.9197314381599426,1.3246195316314695,0.5864105224609375,1.1084442138671875,-0.120086669921875
2020-12-01 18:30:42.5600,-0.064780592918396,-1.292773723602295,1.7306541204452517,0.5256195068359375,1.254058837890625,-0.1415863037109375
2020-12-01 18:30:42.5770,-0.20020367205142972,-1.189805269241333,2.1144230365753174,0.42926025390625,1.2949676513671875,-0.1141815185546875
2020-12-01 18:30:42.5960,-0.2711484134197235,-0.4725819230079651,2.5029120445251465,0.3076019287109375,1.22894287109375,-0.0785369873046875
2020-12-01 18:30:42.6270,-0.3301515579223633,0.06842672824859619,2.684508800506592,0.110626220703125,1.2553863525390625,-0.066375732421875
2020-12-01 18:30:42.6440,-0.4635423719882965,0.2770201563835144,2.361520767211914,0.110626220703125,1.2553863525390625,-0.066375732421875
2020-12-01 18:30:42.6600,-0.5323443412780762,-0.13147546350955966,1.9706531763076784,0.218658447265625,1.43365478515625,-0.1361846923828125
2020-12-01 18:30:42.6770,-0.20046359300613406,-1.1270146369934082,2.227867126464844,0.4447784423828125,1.76904296875,-0.2447967529296875
2020-12-01 18:30:42.6960,0.11146554350852966,-1.6903557777404783,2.909158945083618,0.484527587890625,1.9513702392578125,-0.1414642333984375
2020-12-01 18:30:42.7270,0.2726331353187561,-1.71559739112854,3.4526903629302983,0.237823486328125,1.8167877197265625,0.0023345947265625
2020-12-01 18:30:42.7440,0.20796731114387512,-1.5415382385253906,3.5109527111053467,0.237823486328125,1.8167877197265625,0.0023345947265625
2020-12-01 18:30:42.7610,0.16734717786312106,-1.0643490552902222,3.615105628967285,0.25006103515625,1.925323486328125,0.0088348388671875
2020-12-01 18:30:42.7770,0.2157626450061798,-0.4505762159824371,3.771100044250488,0.210174560546875,1.9698638916015625,0.0637969970703125
2020-12-01 18:30:42.7960,0.2027997225522995,-0.06532814353704453,3.786900043487549,0.0409088134765625,1.7147979736328125,0.1054534912109375
2020-12-01 18:30:42.8270,0.032524652779102325,0.02472478710114956,3.6782748699188232,-0.027923583984375,1.342681884765625,0.1074371337890625
2020-12-01 18:30:42.8440,-0.4891289472579956,-0.03172597289085388,3.364054918289185,0.026275634765625,0.904144287109375,0.0999908447265625
2020-12-01 18:30:42.8610,-0.7882871627807617,-0.2161024659872055,3.1765215396881104,0.122467041015625,0.9132232666015624,0.1088714599609375
2020-12-01 18:30:42.8770,-0.9055975079536438,-0.7926219701766968,3.1454699039459233,0.1519317626953125,0.875091552734375,0.051300048828125
2020-12-01 18:30:42.8960,-0.9810267686843872,-1.2547211647033691,3.087590217590332,0.1145477294921875,0.7741546630859375,0.032379150390625
2020-12-01 18:30:42.9270,-0.9481644630432128,-1.524245023727417,2.9397709369659424,0.0701751708984375,0.7154693603515625,0.0527801513671875
2020-12-01 18:30:42.9440,-0.9144448041915894,-1.6267764568328855,2.693575859069824,0.03851318359375,0.6557464599609375,0.0496673583984375
2020-12-01 18:30:42.9600,-0.8455304503440857,-1.4058619737625122,2.374673366546631,0.042572021484375,0.6598358154296875,0.0606231689453125
2020-12-01 18:30:42.9770,-0.7910786867141724,-1.2649672031402588,2.040518283843994,0.029937744140625,0.747955322265625,0.0594635009765625
2020-12-01 18:30:42.9960,-0.7527906894683838,-0.8687623143196106,1.8207265138626096,-0.05084228515625,0.7834320068359375,0.052642822265625
2020-12-01 18:30:43.0270,-0.7000731229782104,-0.3890159130096436,1.4997307062149048,-0.1641082763671875,0.7570953369140625,0.0740203857421875
2020-12-01 18:30:43.0440,-0.6385812759399414,-0.13546621799468994,0.985077440738678,-0.1572265625,0.73785400390625,0.022430419921875
2020-12-01 18:30:43.0600,-0.6292253136634827,-0.041206292808055885,0.4233930706977844,-0.0956878662109375,0.753814697265625,-0.0686492919921875
2020-12-01 18:30:43.0770,-0.3861421048641205,0.106807142496109,0.04378263279795647,0.0073699951171875,0.817352294921875,-0.1731414794921875
2020-12-01 18:30:43.0960,-0.3861421048641205,0.106807142496109,0.04378263279795647,0.1036224365234375,0.925262451171875,-0.243072509765625
2020-12-01 18:30:43.1270,0.4934813380241394,-0.35220226645469666,-0.6314511895179749,0.1658477783203125,1.030364990234375,-0.276824951171875
2020-12-01 18:30:43.1440,0.78565913438797,-0.36815592646598816,-1.0781946182250977,0.1590576171875,1.109130859375,-0.3090667724609375
2020-12-01 18:30:43.1600,0.9984606504440308,0.17000821232795715,-1.502880334854126,0.117095947265625,1.147705078125,-0.2872467041015625
2020-12-01 18:30:43.1770,1.4030635356903076,0.9943420290946959,-2.0523939132690434,0.05645751953125,1.28167724609375,-0.223785400390625
2020-12-01 18:30:43.1960,1.4030635356903076,0.9943420290946959,-2.0523939132690434,0.0149993896484375,1.546112060546875,-0.1641998291015625
2020-12-01 18:30:43.2270,1.8680895566940308,1.5661720037460327,-4.508965969085693,0.00579833984375,1.884857177734375,-0.0908203125
2020-12-01 18:30:43.2450,1.4711285829544067,1.2013200521469116,-5.659182548522949,0.143829345703125,1.9959564208984373,-0.0299224853515625
2020-12-01 18:30:43.2600,0.9096777439117432,0.7656159400939941,-5.980302810668945,0.398468017578125,1.896087646484375,-0.07183837890625
2020-12-01 18:30:43.2770,0.9096777439117432,0.7656159400939941,-5.980302810668945,0.5288848876953125,1.84100341796875,-0.099517822265625
2020-12-01 18:30:43.2960,0.4257491827011109,0.34543463587760925,-5.566525459289551,0.484771728515625,1.7657623291015625,-0.086456298828125
2020-12-01 18:30:43.3270,-0.2624579966068268,-0.06811913102865219,-4.375661373138429,0.485992431640625,1.624481201171875,-0.115966796875
2020-12-01 18:30:43.3440,-0.3652352392673493,-0.2873731851577759,-3.757665872573853,0.5565948486328125,1.3768463134765625,-0.18389892578125
2020-12-01 18:30:43.3600,-0.3333782255649567,-0.6826302409172058,-3.0834565162658687,0.589202880859375,1.1010589599609375,-0.229095458984375
2020-12-01 18:30:43.3770,-0.3333782255649567,-0.6826302409172058,-3.0834565162658687,0.55487060546875,0.8797607421875,-0.246734619140625
2020-12-01 18:30:43.3960,-0.20763708651065824,-0.8781600594520569,-2.306255340576172,0.48175048828125,0.757904052734375,-0.2093048095703125
2020-12-01 18:30:43.4250,0.030397586524486545,-0.5441083312034607,-1.4804658889770508,0.38079833984375,0.7541656494140625,-0.168304443359375
2020-12-01 18:30:43.4420,-0.020235231146216396,-0.4090721905231476,-1.7338550090789795,0.263031005859375,0.8102569580078125,-0.1394500732421875
2020-12-01 18:30:43.4590,-0.1508702039718628,-0.1751989871263504,-1.8691574335098269,0.2259979248046875,0.8308868408203125,-0.099334716796875
2020-12-01 18:30:43.4760,-0.1508702039718628,-0.1751989871263504,-1.8691574335098269,0.2955780029296875,0.7806854248046875,-0.0568695068359375
2020-12-01 18:30:43.4960,-0.35825347900390625,0.285907119512558,-1.6389689445495603,0.30126953125,0.7674102783203125,-0.02423095703125
2020-12-01 18:30:43.5270,-0.33259740471839905,1.4362845420837402,-1.790812611579895,0.2581024169921875,0.8358917236328125,-0.14410400390625
2020-12-01 18:30:43.5440,-0.19415882229804995,1.3092142343521118,-1.9355121850967407,0.3466339111328125,0.915008544921875,-0.2325592041015625
2020-12-01 18:30:43.5600,-0.028117654845118526,1.168501377105713,-1.668433666229248,0.459869384765625,0.8961029052734375,-0.2690887451171875
2020-12-01 18:30:43.5770,-0.028117654845118526,1.168501377105713,-1.668433666229248,0.5177154541015625,0.854034423828125,-0.252349853515625
2020-12-01 18:30:43.5960,0.039677370339632034,1.0354841947555542,-1.3839704990386963,0.515472412109375,0.905792236328125,-0.2184295654296875
2020-12-01 18:30:43.6270,-0.02965589612722397,0.9778916835784912,-1.1288423538208008,0.498077392578125,1.07318115234375,-0.164947509765625
2020-12-01 18:30:43.6440,-0.060936588793993,1.1432132720947266,-1.1411211490631104,0.5445404052734375,1.2736663818359375,-0.144866943359375
2020-12-01 18:30:43.6600,-0.2738730907440185,1.1451246738433838,-0.927474856376648,0.6395263671875,1.396026611328125,-0.1445770263671875
2020-12-01 18:30:43.6770,-0.2738730907440185,1.1451246738433838,-0.927474856376648,0.70904541015625,1.2476043701171875,-0.135345458984375
2020-12-01 18:30:43.6960,-0.4229967892169952,1.5144749879837036,-0.1174355521798134,0.6986541748046875,1.0389556884765625,-0.081024169921875
2020-12-01 18:30:43.7270,-0.9389498829841614,1.1523950099945068,1.2798465490341189,0.64031982421875,1.025054931640625,-0.1173858642578125
2020-12-01 18:30:43.7440,-0.9265257120132446,0.331592857837677,1.560828685760498,0.5985870361328125,1.24053955078125,-0.2544403076171875
2020-12-01 18:30:43.7610,-0.6122497916221619,-0.4037067294120789,1.91426420211792,0.5956573486328125,1.5830841064453125,-0.301300048828125
2020-12-01 18:30:43.7770,-0.6122497916221619,-0.4037067294120789,1.91426420211792,0.53631591796875,1.799224853515625,-0.2909698486328125
2020-12-01 18:30:43.7960,-0.34966903924942017,-1.0424067974090576,2.6113860607147217,0.420379638671875,1.6495819091796875,-0.20263671875
2020-12-01 18:30:43.8270,-0.4476773738861084,-1.123981237411499,3.839757680892944,0.3234405517578125,1.417083740234375,-0.0998382568359375
2020-12-01 18:30:43.8440,-0.6326693296432495,-0.9102157354354858,4.073955535888672,0.2748260498046875,1.3672027587890625,-0.03363037109375
2020-12-01 18:30:43.8600,-0.6988659501075745,-0.4134126007556915,4.084973812103272,0.2794189453125,1.5164642333984375,0.0025482177734375
2020-12-01 18:30:43.8770,-0.6988659501075745,-0.4134126007556915,4.084973812103272,0.3055267333984375,1.67523193359375,0.0059051513671875
2020-12-01 18:30:43.8960,-0.7965786457061768,-0.37409183382987976,4.0233445167541495,0.2987060546875,1.4812774658203125,0.0002899169921875
2020-12-01 18:30:43.9260,-1.0509486198425293,-0.9294445514678956,4.466428756713867,0.277862548828125,1.195343017578125,0.00897216796875
2020-12-01 18:30:43.9440,-1.1922292709350586,-0.9884543418884276,4.562251567840576,0.2524261474609375,1.0311737060546875,0.063751220703125
2020-12-01 18:30:43.9600,-1.1922292709350586,-0.9884543418884276,4.562251567840576,0.1464385986328125,1.0478668212890625,0.0566864013671875
2020-12-01 18:30:43.9770,-1.1730092763900757,-1.3462742567062378,4.2903666496276855,0.0530242919921875,0.945037841796875,0.0402984619140625
2020-12-01 18:30:43.9960,-1.087204098701477,-1.852481245994568,3.836337566375733,-0.0250244140625,0.770355224609375,0.0378875732421875
2020-12-01 18:30:44.0270,-0.8760401606559753,-2.6115403175354004,3.356231212615967,-0.08258056640625,0.6431732177734375,0.0834808349609375
2020-12-01 18:30:44.0440,-0.8443365693092346,-2.4966421127319336,2.76456618309021,-0.16217041015625,0.6308441162109375,0.1305084228515625
2020-12-01 18:30:44.0600,-0.8443365693092346,-2.4966421127319336,2.76456618309021,-0.2161712646484375,0.738861083984375,0.096160888671875
2020-12-01 18:30:44.0770,-0.7348606586456299,-2.486757755279541,1.9337508678436282,-0.1460418701171875,0.8293304443359375,0.07720947265625
2020-12-01 18:30:44.0960,-0.4901489317417145,-2.4212357997894287,1.489702820777893,-0.075225830078125,0.937744140625,0.065704345703125
2020-12-01 18:30:44.1280,-0.1779942363500595,-1.77415931224823,0.73193359375,-0.0485382080078125,1.01287841796875,0.07208251953125
2020-12-01 18:30:44.1440,-0.15521089732646942,-1.038482904434204,0.24706891179084775,-0.0395355224609375,1.0368194580078125,0.0712432861328125
2020-12-01 18:30:44.1600,-0.15521089732646942,-1.038482904434204,0.24706891179084775,0.0515594482421875,1.0516815185546875,0.04736328125
2020-12-01 18:30:44.1770,-0.19548320770263672,-0.3856105506420136,-0.20073071122169492,0.121337890625,1.0973663330078125,-0.010284423828125
2020-12-01 18:30:44.1960,-0.2041190415620804,-0.07274983823299408,-0.6287350654602051,0.1456298828125,1.131866455078125,-0.06500244140625
2020-12-01 18:30:44.2270,0.0419466495513916,-0.20114615559577945,-1.4750527143478394,0.183746337890625,1.1740264892578125,-0.1401214599609375
2020-12-01 18:30:44.2440,0.2669307589530945,-0.23339411616325376,-1.878223657608032,0.19647216796875,1.283111572265625,-0.17462158203125
2020-12-01 18:30:44.2610,0.2669307589530945,-0.23339411616325376,-1.878223657608032,0.140777587890625,1.42291259765625,-0.1627044677734375
2020-12-01 18:30:44.2770,0.4293146133422852,0.3279118239879608,-2.2711195945739746,0.0400543212890625,1.558563232421875,-0.0874481201171875
2020-12-01 18:30:44.2960,0.373587965965271,1.298603892326355,-2.868314266204834,0.0224761962890625,1.6875457763671875,-0.0436248779296875
2020-12-01 18:30:44.3270,0.2532075047492981,2.941848039627075,-4.032664299011231,0.1627655029296875,1.8479461669921875,-0.085357666015625
2020-12-01 18:30:44.3440,0.3467824459075928,3.012792587280273,-3.901186466217041,0.34661865234375,1.906036376953125,-0.1028900146484375
2020-12-01 18:30:44.3600,0.3467824459075928,3.012792587280273,-3.901186466217041,0.461334228515625,1.6988067626953125,-0.0863189697265625
2020-12-01 18:30:44.3770,0.4853451251983642,2.81783390045166,-3.4036991596221924,0.5044403076171875,1.360626220703125,-0.073211669921875
2020-12-01 18:30:44.3960,0.5096976161003113,2.4646496772766118,-2.897700548171997,0.5044403076171875,1.360626220703125,-0.073211669921875
2020-12-01 18:30:44.4270,0.2759793996810913,1.2852522134780884,-2.055013418197632,0.5460357666015625,0.680511474609375,-0.1183929443359375
2020-12-01 18:30:44.4440,0.2759793996810913,1.2852522134780884,-2.055013418197632,0.510467529296875,0.61614990234375,-0.0247955322265625
2020-12-01 18:30:44.4600,0.16218224167823792,1.0339810848236084,-1.7484160661697388,0.3750457763671875,0.6923675537109375,-0.0743255615234375
2020-12-01 18:30:44.4770,0.1873847991228104,0.8458178043365479,-1.409629225730896,0.290435791015625,0.6474761962890625,-0.034332275390625
2020-12-01 18:30:44.4960,0.2284606099128723,1.019877552986145,-1.3499428033828735,0.290435791015625,0.6474761962890625,-0.034332275390625
2020-12-01 18:30:44.5270,0.19869685173034668,1.0780129432678225,-1.9085613489151,0.2718505859375,0.719024658203125,-0.06884765625
2020-12-01 18:30:44.5440,0.19869685173034668,1.0780129432678225,-1.9085613489151,0.429229736328125,0.7658538818359375,-0.1364898681640625
2020-12-01 18:30:44.5600,0.1990017741918564,0.8027920722961426,-1.9828336238861084,0.5504913330078125,0.7634735107421875,-0.1939697265625
2020-12-01 18:30:44.5770,0.27692028880119324,0.5062277913093567,-1.7696523666381836,0.5504913330078125,0.7634735107421875,-0.1939697265625
2020-12-01 18:30:44.5960,0.4250780642032623,0.4700250327587128,-1.4831838607788086,0.56536865234375,0.71923828125,-0.2044830322265625
2020-12-01 18:30:44.6270,0.5705079436302185,0.8000980019569397,-1.360749363899231,0.4633941650390625,0.8655853271484375,-0.158905029296875
2020-12-01 18:30:44.6440,0.5705079436302185,0.8000980019569397,-1.360749363899231,0.4825439453125,0.975372314453125,-0.1229095458984375
2020-12-01 18:30:44.6600,0.5023917555809021,0.9225876927375792,-1.299392819404602,0.5137939453125,1.0513763427734375,-0.105743408203125
2020-12-01 18:30:44.6770,0.4040398895740509,0.942561686038971,-1.1843404769897459,0.5137939453125,1.0513763427734375,-0.105743408203125
2020-12-01 18:30:44.6960,0.390884667634964,0.8402419686317444,-1.1043742895126345,0.512847900390625,1.1431732177734375,-0.107696533203125
2020-12-01 18:30:44.7270,0.21694296598434448,0.5627938508987427,-0.9622493386268616,0.533538818359375,1.320770263671875,-0.078826904296875
2020-12-01 18:30:44.7440,0.21694296598434448,0.5627938508987427,-0.9622493386268616,0.5520172119140625,1.1897125244140625,-0.052398681640625
2020-12-01 18:30:44.7600,0.04774488508701325,0.7324353456497192,-0.5540440082550049,0.5433807373046875,1.0849761962890625,-0.0430755615234375
2020-12-01 18:30:44.7770,-0.15971936285495758,0.9047229290008544,-0.1816803216934204,0.5433807373046875,1.0849761962890625,-0.0430755615234375
2020-12-01 18:30:44.7960,-0.3626964390277863,0.788945734500885,0.04903305694460869,0.526885986328125,1.247406005859375,-0.0602874755859375
2020-12-01 18:30:44.8270,-0.504422664642334,-0.21983543038368225,0.3924564719200134,0.604949951171875,1.3942108154296875,-0.1240081787109375
2020-12-01 18:30:44.8440,-0.504422664642334,-0.21983543038368225,0.3924564719200134,0.6772003173828125,1.3732757568359375,-0.1326904296875
2020-12-01 18:30:44.8600,-0.5671284198760986,-1.0044958591461182,0.7982196807861328,0.69268798828125,1.2100372314453125,-0.1313629150390625
2020-12-01 18:30:44.8770,-0.5650569796562195,-1.6723452806472778,1.492274045944214,0.69268798828125,1.2100372314453125,-0.1313629150390625
2020-12-01 18:30:44.8960,-0.5202010869979858,-2.0838766098022456,2.111426830291748,0.61737060546875,1.1355438232421875,-0.076263427734375
2020-12-01 18:30:44.9270,-0.5036117434501648,-2.5394673347473145,2.4409704208374023,0.4319610595703125,1.1121978759765625,0.0006103515625
2020-12-01 18:30:44.9440,-0.6144948601722717,-2.6745917797088623,2.6502444744110107,0.4471893310546875,1.2110595703125,0.039093017578125
2020-12-01 18:30:44.9600,-0.6273752450942993,-2.409597396850586,2.755154609680176,0.4416046142578125,1.27734375,-0.035552978515625
2020-12-01 18:30:44.9770,-0.637268602848053,-2.5170438289642334,2.9459681510925293,0.4416046142578125,1.27734375,-0.035552978515625
2020-12-01 18:30:44.9960,-0.4772182106971741,-2.397249698638916,3.4206020832061768,0.37579345703125,1.1174163818359375,-0.0471954345703125
2020-12-01 18:30:45.0270,-0.3436958491802216,-2.0772507190704346,3.8545546531677246,0.2259674072265625,0.9838104248046876,-0.0032196044921875
2020-12-01 18:30:45.0440,-0.2793214023113251,-1.6067417860031128,3.881931781768799,0.1611175537109375,0.9399871826171876,-0.0179595947265625
2020-12-01 18:30:45.0600,-0.3200070261955261,-1.4558422565460205,3.6264531612396236,0.1611175537109375,0.9399871826171876,-0.0179595947265625
2020-12-01 18:30:45.0770,-0.2876189947128296,-1.3784582614898682,3.4651522636413574,0.152496337890625,0.947845458984375,-0.0447235107421875
2020-12-01 18:30:45.0960,-0.2122984081506729,-1.3857401609420776,3.3586597442626958,0.18756103515625,0.917205810546875,-0.0576019287109375
2020-12-01 18:30:45.1270,-0.14824779331684113,-1.4500946998596191,3.1263124942779537,0.077239990234375,0.7977294921875,-0.036773681640625
2020-12-01 18:30:45.1440,-0.061541922390460975,-1.3387631177902222,2.9073882102966313,-0.0296783447265625,0.7951202392578125,-0.0095672607421875
2020-12-01 18:30:45.1600,0.06951676309108734,-1.1183558702468872,2.453458547592163,-0.0296783447265625,0.7951202392578125,-0.0095672607421875
2020-12-01 18:30:45.1770,0.25474813580513,-0.9283987283706664,1.7190182209014893,-0.0704345703125,0.963531494140625,-0.05084228515625
2020-12-01 18:30:45.1960,0.42204126715660095,-0.7102757096290588,1.0572379827499392,-0.082794189453125,1.0247802734375,-0.05712890625
2020-12-01 18:30:45.2270,0.4759944975376129,-0.3969449698925018,0.5146422982215881,0.065185546875,1.006805419921875,0.00250244140625
2020-12-01 18:30:45.2440,0.4645034968852997,-0.11972027271986008,0.05404938757419586,0.1854248046875,1.1403961181640625,-0.0215301513671875
2020-12-01 18:30:45.2600,0.35278227925300604,0.005110606085509062,-0.2328247278928757,0.1854248046875,1.1403961181640625,-0.0215301513671875
2020-12-01 18:30:45.2770,0.2126163989305496,0.1730567365884781,-0.3533085286617279,0.32110595703125,1.2164306640625,-0.027618408203125
2020-12-01 18:30:45.2960,0.20692361891269684,0.282397598028183,-0.4399571418762207,0.358551025390625,1.2853851318359375,-0.035247802734375
2020-12-01 18:30:45.3270,0.29929137229919434,0.3909800052642822,-0.7402464151382446,0.262664794921875,1.4519195556640625,-0.054595947265625
2020-12-01 18:30:45.3440,0.2576874792575836,0.3838400840759277,-1.2914605140686035,0.2511749267578125,1.4485321044921875,-0.0782470703125
2020-12-01 18:30:45.3600,0.0976855456829071,0.2776843309402466,-1.650299072265625,0.2511749267578125,1.4485321044921875,-0.0782470703125
2020-12-01 18:30:45.3770,-0.16340197622776031,0.2597319781780243,-1.6817598342895508,0.32757568359375,1.35784912109375,-0.1151885986328125
2020-12-01 18:30:45.3960,-0.3264593482017517,0.3757613599300385,-1.5411663055419922,0.3868865966796875,1.281707763671875,-0.17987060546875
2020-12-01 18:30:45.4270,-0.3404710292816162,0.4961754083633423,-1.424641251564026,0.3107452392578125,1.05731201171875,-0.26226806640625
2020-12-01 18:30:45.4440,-0.2888238131999969,0.5703766345977783,-1.3523640632629397,0.2958526611328125,0.8257293701171875,-0.322174072265625
2020-12-01 18:30:45.4610,-0.21519885957241056,0.5849782228469849,-1.2695728540420532,0.2958526611328125,0.8257293701171875,-0.322174072265625
2020-12-01 18:30:45.4770,-0.20129530131816864,0.7235025763511658,-1.2636278867721558,0.352264404296875,0.60516357421875,-0.2991943359375
2020-12-01 18:30:45.4960,-0.11105914413928986,0.7343764901161194,-1.1354589462280271,0.4070281982421875,0.5996246337890625,-0.2998199462890625
2020-12-01 18:30:45.5270,-0.06374622136354446,0.7493948936462402,-0.9882439374923706,0.448974609375,0.494110107421875,-0.278839111328125
2020-12-01 18:30:45.5440,-0.04892892763018608,0.7611434459686279,-0.934487760066986,0.43994140625,0.4833831787109375,-0.2669830322265625
2020-12-01 18:30:45.5600,-0.020388895645737648,0.7248951196670532,-0.9721760153770448,0.43994140625,0.4833831787109375,-0.2669830322265625
2020-12-01 18:30:45.5770,0.0003438140847720206,0.6525841951370239,-1.0483735799789429,0.4566497802734375,0.4852142333984375,-0.2517852783203125
2020-12-01 18:30:45.5960,0.02810726873576641,0.5765029788017273,-1.129568576812744,0.512847900390625,0.51171875,-0.2421417236328125
2020-12-01 18:30:45.6270,0.0986216515302658,0.399701863527298,-1.1256986856460571,0.64825439453125,0.67572021484375,-0.2429351806640625
2020-12-01 18:30:45.6440,0.2290891110897064,0.4218830764293671,-0.9669018983840942,0.6605987548828125,0.66766357421875,-0.1998138427734375
2020-12-01 18:30:45.6600,0.2344604432582855,0.50636225938797,-0.8661217689514159,0.6605987548828125,0.66766357421875,-0.1998138427734375
2020-12-01 18:30:45.6770,0.13053324818611145,0.7435337901115417,-0.8413423895835876,0.664642333984375,0.64935302734375,-0.1285400390625
2020-12-01 18:30:45.6960,0.015629027038812637,0.9341697692871094,-0.8662291169166565,0.6781005859375,0.7285003662109375,-0.0765228271484375
2020-12-01 18:30:45.7270,-0.0700690969824791,0.906986653804779,-0.8790644407272339,0.758514404296875,0.9430084228515624,-0.0652313232421875
2020-12-01 18:30:45.7440,-0.10173674672842026,0.8758449554443359,-0.8747519850730896,0.758514404296875,0.9430084228515624,-0.0652313232421875
2020-12-01 18:30:45.7600,-0.10791048407554626,0.7657812833786011,-0.7902776002883911,0.794219970703125,0.974365234375,-0.0634765625
2020-12-01 18:30:45.7770,-0.10838266462087633,0.6707203388214111,-0.5744004249572754,0.8076934814453125,0.9607696533203124,-0.04205322265625
2020-12-01 18:30:45.7960,-0.1552838683128357,0.5395340323448181,-0.3721520006656647,0.794158935546875,0.995086669921875,-0.0326385498046875
2020-12-01 18:30:45.8270,-0.171400785446167,0.33772051334381104,-0.2693342566490173,0.749237060546875,1.2877044677734375,-0.0809478759765625
2020-12-01 18:30:45.8440,-0.08083359897136687,0.06738010793924333,-0.2470491975545883,0.749237060546875,1.2877044677734375,-0.0809478759765625
2020-12-01 18:30:45.8600,0.01993695646524429,-0.2673720419406891,-0.2311706393957138,0.7367401123046875,1.3882904052734375,-0.079376220703125
2020-12-01 18:30:45.8770,-0.001630120910704136,-0.4599162042140961,-0.1466197967529297,0.7305908203125,1.3189849853515625,-0.0369720458984375
2020-12-01 18:30:45.8960,-0.14502537250518802,-0.5967137217521667,0.0938013270497322,0.734771728515625,1.21630859375,-0.0285491943359375
2020-12-01 18:30:45.9270,-0.24114204943180084,-0.6583970785140991,0.4039453268051148,0.668121337890625,1.1606903076171875,-0.0083465576171875
2020-12-01 18:30:45.9440,-0.2664197087287903,-0.8252848386764526,0.5754393339157104,0.668121337890625,1.1606903076171875,-0.0083465576171875
2020-12-01 18:30:45.9600,-0.2610347867012024,-1.1274197101593018,0.6883323192596436,0.607757568359375,1.0406341552734375,0.001251220703125
2020-12-01 18:30:45.9770,-0.3848571479320526,-1.3502790927886963,0.7203677296638489,0.564971923828125,0.78076171875,0.0124053955078125
2020-12-01 18:30:45.9960,-0.5827518105506897,-1.4694478511810305,0.8278564214706421,0.5297698974609375,0.722625732421875,0.03033447265625
2020-12-01 18:30:46.0270,-0.6983495354652405,-1.3779197931289673,1.0930087566375732,0.3972625732421875,0.5986785888671875,-0.027191162109375
2020-12-01 18:30:46.0440,-0.6901369094848633,-1.170814037322998,1.2813352346420288,0.3972625732421875,0.5986785888671875,-0.027191162109375
2020-12-01 18:30:46.0600,-0.5936796069145203,-1.0067745447158811,1.3246361017227173,0.3090057373046875,0.581207275390625,-0.071258544921875
2020-12-01 18:30:46.0770,-0.4613550901412964,-0.9124051332473756,1.2946689128875732,0.2522125244140625,0.55816650390625,-0.099853515625
2020-12-01 18:30:46.0960,-0.3113645315170288,-0.8467994928359985,1.330172777175903,0.231781005859375,0.5417938232421875,-0.1115875244140625
2020-12-01 18:30:46.1270,-0.2150326818227768,-0.6852236390113831,1.3287429809570312,0.246246337890625,0.6641082763671875,-0.0879058837890625
2020-12-01 18:30:46.1440,-0.14791755378246307,-0.4626163840293884,1.2800416946411133,0.246246337890625,0.6641082763671875,-0.0879058837890625
2020-12-01 18:30:46.1600,-0.04835954308509827,-0.2910768389701843,1.2809314727783203,0.286163330078125,0.7882232666015625,-0.104705810546875
2020-12-01 18:30:46.1770,0.04721678048372269,-0.09283619374036788,1.1952184438705444,0.2999420166015625,0.852020263671875,-0.1165008544921875
2020-12-01 18:30:46.1960,0.13862472772598267,0.1533413529396057,1.0536149740219116,0.2871246337890625,0.888092041015625,-0.129058837890625
2020-12-01 18:30:46.2270,0.33143144845962524,0.18765564262866974,0.8968847393989563,0.2773590087890625,1.0398406982421875,-0.1734619140625
2020-12-01 18:30:46.2440,0.4350316226482392,0.04669373482465744,0.7738096714019775,0.272430419921875,1.1651153564453125,-0.173492431640625
2020-12-01 18:30:46.2600,0.4013234674930573,-0.1026368960738182,0.6581286191940308,0.272308349609375,1.138519287109375,-0.11151123046875
2020-12-01 18:30:46.2770,0.3524171710014343,-0.2884664237499237,0.4848918616771698,0.27191162109375,1.132171630859375,-0.062164306640625
2020-12-01 18:30:46.2960,0.2362428903579712,-0.4980801045894623,0.09252221137285233,0.2349853515625,1.340087890625,-0.04522705078125
2020-12-01 18:30:46.3270,-0.021825669333338737,-0.5185714960098267,-0.4855517745018005,0.1998138427734375,1.7643280029296875,-0.04925537109375
2020-12-01 18:30:46.3440,-0.14830930531024933,-0.1563994586467743,-0.7193619012832642,0.2366790771484375,2.0376739501953125,-0.0458221435546875
2020-12-01 18:30:46.3600,-0.033372070640325546,0.5726613998413086,-0.5656476616859436,0.314422607421875,1.714874267578125,-0.077484130859375
2020-12-01 18:30:46.3770,0.04313921555876732,1.3080432415008545,-0.3157978951931,0.334259033203125,1.2749481201171875,-0.1325531005859375
2020-12-01 18:30:46.3960,0.1543365716934204,1.8320479393005369,-0.1688697189092636,0.33343505859375,1.0452880859375,-0.1590576171875
2020-12-01 18:30:46.4270,0.3537652492523193,1.7286959886550903,-0.09922219067811966,0.3462371826171875,0.7635955810546875,-0.2310638427734375
2020-12-01 18:30:46.4440,0.402427613735199,1.5629860162734983,-0.30643635988235474,0.338775634765625,0.52203369140625,-0.1117401123046875
2020-12-01 18:30:46.4600,0.5329906940460205,1.1175843477249146,-0.5852767825126648,0.3147125244140625,0.52392578125,-0.116455078125
2020-12-01 18:30:46.4770,0.7201033234596252,0.6569371223449707,-0.8608356714248657,0.320709228515625,0.5999298095703125,-0.0858001708984375
2020-12-01 18:30:46.4960,0.7201033234596252,0.6569371223449707,-0.8608356714248657,0.29290771484375,0.6446075439453125,-0.0128021240234375
2020-12-01 18:30:46.5270,0.7266541719436646,0.585254967212677,-1.2645621299743652,0.2870635986328125,0.692474365234375,0.0654449462890625
2020-12-01 18:30:46.5440,0.6933180093765259,0.8826176524162292,-1.2953764200210571,0.254180908203125,0.7403717041015625,0.0855712890625
2020-12-01 18:30:46.5600,0.7314081788063049,1.2119084596633911,-1.4012354612350464,0.19476318359375,0.793365478515625,0.1085052490234375
2020-12-01 18:30:46.5770,0.7737231254577637,1.2076213359832764,-1.6829742193222046,0.2095184326171875,0.93988037109375,0.095245361328125
2020-12-01 18:30:46.5960,0.7737231254577637,1.2076213359832764,-1.6829742193222046,0.2514190673828125,1.0169677734375,0.033172607421875
2020-12-01 18:30:46.6270,0.4473431408405304,0.4504265487194061,-1.6154273748397827,0.30712890625,0.9156341552734376,0.0275115966796875
2020-12-01 18:30:46.6440,0.210629403591156,0.15246091783046722,-1.5123633146286009,0.353363037109375,0.8752288818359375,-0.067962646484375
2020-12-01 18:30:46.6600,0.30911895632743835,-0.3172799646854401,-1.4612085819244385,0.3844451904296875,0.970794677734375,-0.1757354736328125
2020-12-01 18:30:46.6770,0.30911895632743835,-0.3172799646854401,-1.4612085819244385,0.37286376953125,1.0477447509765625,-0.2313690185546875
2020-12-01 18:30:46.6960,0.6448841691017151,-0.8483622074127197,-1.47029709815979,0.3236541748046875,1.066925048828125,-0.2222137451171875
2020-12-01 18:30:46.7270,0.973271369934082,-1.1591105461120603,-1.50314462184906,0.259429931640625,1.138153076171875,-0.18096923828125
2020-12-01 18:30:46.7440,0.8702952265739441,-0.7967056632041931,-1.7285441160202026,0.2323760986328125,1.2143707275390625,-0.137786865234375
2020-12-01 18:30:46.7600,0.6369644999504089,-0.1233576238155365,-2.001920223236084,0.2286376953125,1.21417236328125,-0.0828704833984375
2020-12-01 18:30:46.7770,0.6369644999504089,-0.1233576238155365,-2.001920223236084,0.24920654296875,1.1082000732421875,-0.042877197265625
2020-12-01 18:30:46.7960,0.4111294746398926,0.7764579057693481,-2.1548917293548584,0.3034820556640625,0.9676666259765624,-0.0335235595703125
2020-12-01 18:30:46.8270,0.13970090448856354,2.3137402534484863,-1.9816445112228396,0.362335205078125,0.9050750732421876,-0.044158935546875
2020-12-01 18:30:46.8440,0.05953017249703407,2.7550084590911865,-1.8417130708694456,0.415740966796875,0.8340606689453125,-0.0373992919921875
2020-12-01 18:30:46.8600,-0.009590575471520424,2.8423409461975098,-1.9662150144577024,0.4476776123046875,0.8902740478515625,-0.0454864501953125
2020-12-01 18:30:46.8770,-0.009590575471520424,2.8423409461975098,-1.9662150144577024,0.53125,1.05279541015625,-0.0592193603515625
2020-12-01 18:30:46.8960,-0.09089767932891846,2.382554531097412,-2.264930248260498,0.67022705078125,1.268951416015625,-0.1304779052734375
2020-12-01 18:30:46.9270,-0.034342791885137565,0.3837740123271942,-2.279406309127808,0.827239990234375,1.4447021484375,-0.12164306640625
2020-12-01 18:30:46.9440,-0.2195483297109604,-0.6776527762413025,-1.41131854057312,1.01959228515625,1.395843505859375,-0.093780517578125
2020-12-01 18:30:46.9610,-0.5704549551010132,-1.533655881881714,-0.39868319034576416,1.098846435546875,1.1556549072265625,-0.086883544921875
2020-12-01 18:30:46.9770,-0.5704549551010132,-1.533655881881714,-0.39868319034576416,1.016448974609375,0.9706573486328124,-0.0874176025390625
2020-12-01 18:30:46.9960,-0.8186312317848206,-2.301474571228028,0.4872689843177795,0.917510986328125,0.9533233642578124,-0.09539794921875
2020-12-01 18:30:47.0270,-0.8235961198806763,-3.5330522060394287,2.003259658813477,0.8379974365234375,0.944854736328125,-0.1377105712890625
2020-12-01 18:30:47.0440,-0.7066959142684937,-3.666438579559326,2.6365246772766118,0.776214599609375,0.9742889404296876,-0.215301513671875
2020-12-01 18:30:47.0600,-0.4316944181919098,-3.2928948402404785,3.2161858081817627,0.636688232421875,0.96337890625,-0.2066497802734375
2020-12-01 18:30:47.0770,-0.4316944181919098,-3.2928948402404785,3.2161858081817627,0.460906982421875,0.9526519775390624,-0.1945953369140625
2020-12-01 18:30:47.0960,-0.14876364171504974,-2.6429429054260254,3.533021688461304,0.33502197265625,0.9621734619140624,-0.1996002197265625
2020-12-01 18:30:47.1270,0.12224815040826795,-1.3203638792037964,3.656646728515625,0.2995147705078125,1.0122528076171875,-0.203582763671875
2020-12-01 18:30:47.1440,0.25479793548583984,-1.0070961713790894,3.77737021446228,0.3143463134765625,1.076202392578125,-0.2191925048828125
2020-12-01 18:30:47.1600,0.25479793548583984,-1.0070961713790894,3.77737021446228,0.2966156005859375,1.05859375,-0.18414306640625
2020-12-01 18:30:47.1770,0.3862057626247406,-0.9144421815872192,3.829441785812378,0.2493438720703125,1.016448974609375,-0.1343231201171875
2020-12-01 18:30:47.1960,0.4392711222171784,-0.9595513343811036,3.7776386737823486,0.2089385986328125,1.0156402587890625,-0.08056640625
2020-12-01 18:30:47.2270,0.4154624342918396,-0.9152560234069824,3.4738657474517822,0.1715545654296875,1.174041748046875,-0.0901336669921875
2020-12-01 18:30:47.2440,0.5928212404251099,-0.7039831876754761,3.2620880603790283,0.0962371826171875,1.3275146484375,-0.09259033203125
2020-12-01 18:30:47.2610,0.5928212404251099,-0.7039831876754761,3.2620880603790283,-0.01666259765625,1.3012542724609375,-0.05267333984375
2020-12-01 18:30:47.2770,0.7995704412460327,-0.4324358403682709,2.855289459228516,-0.0777587890625,1.2179107666015625,-0.00830078125
2020-12-01 18:30:47.2960,0.792229950428009,-0.26673954725265503,2.26973819732666,-0.0556182861328125,1.2500152587890625,0.0244140625
2020-12-01 18:30:47.3270,0.5171453952789307,0.12515445053577426,1.5545427799224854,-0.008758544921875,1.34625244140625,0.0637664794921875
2020-12-01 18:30:47.3440,0.3223860263824463,0.15118153393268585,1.1764519214630127,-0.0363311767578125,1.3543548583984375,0.0798187255859375
2020-12-01 18:30:47.3610,0.3223860263824463,0.15118153393268585,1.1764519214630127,-0.054534912109375,1.1804656982421875,0.0681915283203125
2020-12-01 18:30:47.3770,0.16236254572868347,0.09905388206243516,0.7446685433387756,-0.0356597900390625,1.0816497802734375,0.014678955078125
2020-12-01 18:30:47.3960,0.023089606314897537,0.07338792830705643,0.1916479915380478,-0.0020904541015625,1.29437255859375,-0.021331787109375
2020-12-01 18:30:47.4260,0.12476350367069244,0.7490502595901489,-1.0983734130859375,0.14324951171875,1.5556640625,-0.01611328125
2020-12-01 18:30:47.4440,0.15363137423992154,0.8455970287322998,-1.326448678970337,0.3347930908203125,1.7418212890625,-0.027130126953125
2020-12-01 18:30:47.4600,0.15363137423992154,0.8455970287322998,-1.326448678970337,0.5131072998046875,1.6894378662109375,-0.065032958984375
2020-12-01 18:30:47.4770,0.07399725914001465,1.2122304439544678,-1.1016932725906372,0.591705322265625,1.4632720947265625,-0.098175048828125
2020-12-01 18:30:47.4960,0.035045869648456573,1.699073076248169,-0.7938659191131592,0.5297393798828125,1.295684814453125,-0.15093994140625
2020-12-01 18:30:47.5270,0.16813814640045166,1.7880964279174805,-1.1675037145614624,0.36566162109375,1.114959716796875,-0.1763153076171875
2020-12-01 18:30:47.5440,0.20276056230068207,1.4682220220565796,-1.4757020473480225,0.2032928466796875,0.7082977294921875,-0.245330810546875
2020-12-01 18:30:47.5600,0.20276056230068207,1.4682220220565796,-1.4757020473480225,0.1971435546875,0.4813995361328125,-0.0832672119140625
2020-12-01 18:30:47.5770,-0.1246231570839882,1.3083231449127195,-1.8664718866348269,0.2626495361328125,0.516021728515625,-0.22265625
2020-12-01 18:30:47.5960,-0.19497615098953247,1.102171540260315,-1.8776733875274656,0.3137054443359375,0.5280609130859375,-0.2630767822265625
2020-12-01 18:30:47.6270,0.7396040558815002,0.9282730221748352,-1.6874475479125977,0.275634765625,0.49212646484375,-0.238372802734375
2020-12-01 18:30:47.6440,1.0684895515441897,0.8138172626495361,-1.7372289896011353,0.2899017333984375,0.415374755859375,-0.1931915283203125
2020-12-01 18:30:47.6600,1.0684895515441897,0.8138172626495361,-1.7372289896011353,0.3863983154296875,0.49017333984375,-0.0988922119140625
2020-12-01 18:30:47.6770,0.9753539562225342,1.1468425989151,-1.84417986869812,0.470001220703125,0.606719970703125,-0.0077056884765625
2020-12-01 18:30:47.6960,0.7158142924308777,1.7311534881591797,-1.7862545251846311,0.470001220703125,0.606719970703125,-0.0077056884765625
2020-12-01 18:30:47.7270,0.30149248242378235,2.402031421661377,-1.6119009256362915,0.53143310546875,0.6800689697265625,-0.0322113037109375
2020-12-01 18:30:47.7440,0.30149248242378235,2.402031421661377,-1.6119009256362915,0.5742950439453125,0.695648193359375,-0.0670013427734375
2020-12-01 18:30:47.7600,0.3806317746639252,2.0078458786010738,-1.733054757118225,0.6883544921875,0.732269287109375,-0.115142822265625
2020-12-01 18:30:47.7770,0.524519145488739,1.19452702999115,-1.8450052738189695,0.81787109375,0.75604248046875,-0.14569091796875
2020-12-01 18:30:47.7960,0.5914462804794312,0.2827797830104828,-1.7564990520477295,0.81787109375,0.75604248046875,-0.14569091796875
2020-12-01 18:30:47.8270,0.5874446034431458,-0.3748519122600555,-1.4774565696716309,0.83233642578125,0.886688232421875,-0.107818603515625
2020-12-01 18:30:47.8440,0.5874446034431458,-0.3748519122600555,-1.4774565696716309,0.78155517578125,1.09423828125,-0.082489013671875
2020-12-01 18:30:47.8600,0.5946111679077148,-0.20636941492557528,-1.5217741727828982,0.800079345703125,1.19891357421875,-0.041290283203125
2020-12-01 18:30:47.8770,0.5374280214309692,0.2920345067977905,-1.3935376405715942,0.800079345703125,1.19891357421875,-0.041290283203125
2020-12-01 18:30:47.8960,0.430971622467041,0.9551645517349244,-1.0201414823532104,0.834228515625,1.1501007080078125,0.0047149658203125
2020-12-01 18:30:47.9270,0.12457148730754852,1.332128405570984,-0.4920019507408142,0.7648773193359375,1.0975189208984375,0.045623779296875
2020-12-01 18:30:47.9440,0.12457148730754852,1.332128405570984,-0.4920019507408142,0.7512054443359375,1.1957855224609375,0.0273590087890625
2020-12-01 18:30:47.9610,-0.05042508989572525,0.8152133226394653,-0.5418491363525391,0.773681640625,1.281646728515625,0.0049896240234375
2020-12-01 18:30:47.9770,-0.18793661892414093,-0.1235475018620491,-0.69277024269104,0.773681640625,1.281646728515625,0.0049896240234375
2020-12-01 18:30:47.9960,-0.3572414815425873,-1.2541755437850952,-0.6781089901924133,0.8276214599609375,1.3817291259765625,-0.0279388427734375
2020-12-01 18:30:48.0270,-0.5394869446754456,-3.228218078613281,0.5860205888748169,0.902099609375,1.243927001953125,-0.035247802734375
2020-12-01 18:30:48.0440,-0.5394869446754456,-3.228218078613281,0.5860205888748169,0.78021240234375,1.090362548828125,-0.0076904296875
2020-12-01 18:30:48.0600,-0.5207214951515198,-3.933533191680908,1.1071016788482666,0.6754150390625,1.0760650634765625,-0.0146026611328125
2020-12-01 18:30:48.0770,-0.5069867968559265,-4.4832186698913565,1.425995945930481,0.6754150390625,1.0760650634765625,-0.0146026611328125
2020-12-01 18:30:48.0960,-0.2816316783428192,-4.410599231719972,1.936567068099976,0.6791839599609375,1.24383544921875,-0.10858154296875
2020-12-01 18:30:48.1270,0.5176112055778503,-3.2986061573028564,3.151253700256348,0.4755401611328125,1.0246734619140625,-0.0719451904296875
2020-12-01 18:30:48.1440,0.5176112055778503,-3.2986061573028564,3.151253700256348,0.3323211669921875,0.9258270263671876,-0.04827880859375
2020-12-01 18:30:48.1600,0.5830106735229492,-2.2854015827178955,3.475949764251709,0.2350311279296875,0.8643035888671875,-0.0345916748046875
2020-12-01 18:30:48.1770,0.4822673201560974,-1.229339361190796,3.5650475025177,0.2350311279296875,0.8643035888671875,-0.0345916748046875
2020-12-01 18:30:48.1960,0.377769410610199,-0.39557021856307983,3.4595367908477783,0.190460205078125,0.8121337890625,-0.033233642578125
2020-12-01 18:30:48.2270,0.34780749678611755,0.03856656700372696,3.18154239654541,0.1677398681640625,0.701873779296875,-0.0729217529296875
2020-12-01 18:30:48.2440,0.3162005841732025,0.13554450869560242,2.873921155929565,0.195281982421875,0.66583251953125,-0.08563232421875
2020-12-01 18:30:48.2600,0.344933956861496,0.12359198182821275,2.656711339950561,0.2254638671875,0.681488037109375,-0.095855712890625
2020-12-01 18:30:48.2770,0.45327612757682795,0.067487433552742,2.4855873584747314,0.2254638671875,0.681488037109375,-0.095855712890625
2020-12-01 18:30:48.2960,0.598340630531311,-0.030261499807238582,2.2500109672546387,0.230621337890625,0.71588134765625,-0.095001220703125
2020-12-01 18:30:48.3270,0.753892719745636,0.0017449031583964825,1.9974533319473269,0.200469970703125,0.8727569580078125,-0.0918731689453125
2020-12-01 18:30:48.3440,0.9754732847213744,0.12374777346849443,1.7686513662338257,0.2053375244140625,1.0909423828125,-0.08770751953125
2020-12-01 18:30:48.3610,1.2596261501312256,0.20491746068000796,1.4408886432647705,0.191497802734375,1.2381591796875,-0.0562591552734375
2020-12-01 18:30:48.3770,1.2835336923599243,0.12684503197669986,1.0354351997375488,0.191497802734375,1.2381591796875,-0.0562591552734375
2020-12-01 18:30:48.3960,1.0121927261352541,0.10526569932699203,0.6478778719902039,0.1890869140625,1.1719207763671875,-6.103515625e-05
2020-12-01 18:30:48.4270,0.5282547473907471,0.22447331249713895,0.3245900571346283,0.230438232421875,1.0363922119140625,-0.0453338623046875
2020-12-01 18:30:48.4440,0.1501287817955017,0.4111206829547882,0.039675772190094,0.193115234375,1.11083984375,-0.1098175048828125
2020-12-01 18:30:48.4600,0.09916040301322936,0.6125813722610474,-0.3736971616744995,0.193115234375,1.11083984375,-0.1098175048828125
2020-12-01 18:30:48.4770,0.2296009659767151,0.7726333737373352,-0.9132988452911376,0.1688079833984375,1.209808349609375,-0.1482391357421875
2020-12-01 18:30:48.4960,0.3285970687866211,0.7820044755935669,-1.5356463193893433,0.17730712890625,1.262054443359375,-0.148651123046875
2020-12-01 18:30:48.5270,0.18798907101154327,0.75644451379776,-2.109792232513428,0.298431396484375,1.2869110107421875,-0.1708526611328125
2020-12-01 18:30:48.5440,-0.12416376173496245,0.7730293869972229,-2.620244026184082,0.3858184814453125,1.3676300048828125,-0.1926422119140625
2020-12-01 18:30:48.5600,-0.4486694037914276,0.6929585337638855,-2.9438364505767822,0.3858184814453125,1.3676300048828125,-0.1926422119140625
2020-12-01 18:30:48.5770,-0.6287803053855896,0.6687421202659607,-3.0263047218322754,0.421630859375,1.4295806884765625,-0.202789306640625
2020-12-01 18:30:48.5960,-0.7431148886680603,0.6947918534278871,-2.995471477508545,0.427398681640625,1.3996429443359375,-0.1992645263671875
2020-12-01 18:30:48.6270,-0.7915862798690796,0.7878610491752625,-2.9490554332733154,0.4434051513671875,1.068756103515625,-0.2763214111328125
2020-12-01 18:30:48.6440,-0.6689578294754028,0.6718199253082275,-2.796428918838501,0.4364013671875,0.8551025390625,-0.2816314697265625
2020-12-01 18:30:48.6600,-0.5024852156639099,0.6887589693069458,-2.554781913757324,0.4364013671875,0.8551025390625,-0.2816314697265625
2020-12-01 18:30:48.6770,-0.2840692698955536,0.7606107592582703,-2.248607397079468,0.4219818115234375,0.7677764892578125,-0.2657318115234375
2020-12-01 18:30:48.6960,-0.08973867446184157,0.8188690543174744,-2.0331311225891118,0.4143524169921875,0.65936279296875,-0.2518310546875
2020-12-01 18:30:48.7270,0.020327109843492508,0.8976455926895142,-1.8974926471710205,0.4386138916015625,0.588043212890625,-0.1755218505859375
2020-12-01 18:30:48.7440,0.08539026230573654,0.9589177370071412,-1.7966238260269165,0.4224395751953125,0.642242431640625,-0.143035888671875
2020-12-01 18:30:48.7610,0.11539983004331587,0.9299103021621704,-1.8415926694869995,0.4224395751953125,0.642242431640625,-0.143035888671875
2020-12-01 18:30:48.7770,0.08649041503667831,0.7246301770210266,-1.9782929420471191,0.4500274658203125,0.7090301513671875,-0.1252899169921875
2020-12-01 18:30:48.7960,0.04477226361632347,0.3654011487960816,-2.0925183296203613,0.542022705078125,0.7760162353515625,-0.15960693359375
2020-12-01 18:30:48.8270,0.05343605950474739,0.07186886668205261,-1.9846220016479488,0.7649383544921875,0.7543792724609375,-0.2678070068359375
2020-12-01 18:30:48.8440,0.17119412124156952,0.04667509347200394,-1.6314359903335571,0.7660064697265625,0.68743896484375,-0.24993896484375
2020-12-01 18:30:48.8600,0.29504603147506714,0.4067813456058502,-1.2560220956802368,0.7660064697265625,0.68743896484375,-0.24993896484375
2020-12-01 18:30:48.8770,0.3596082329750061,1.0746986865997314,-1.0401188135147097,0.68994140625,0.6874847412109375,-0.207977294921875
2020-12-01 18:30:48.8960,0.4144576489925385,1.6624979972839355,-1.0140336751937866,0.6136474609375,0.7534332275390625,-0.15087890625
2020-12-01 18:30:48.9270,0.3368217051029205,1.7086044549942017,-1.2693065404891968,0.7249603271484375,1.0597381591796875,-0.116424560546875
2020-12-01 18:30:48.9440,0.1938368529081345,1.2919965982437134,-1.4876396656036377,0.9169769287109376,1.183380126953125,-0.13671875
2020-12-01 18:30:48.9600,0.030630879104137417,0.6318650841712952,-1.1534137725830078,0.9169769287109376,1.183380126953125,-0.13671875
2020-12-01 18:30:48.9770,-0.06640619039535522,0.026971695944666862,-0.4168723225593567,1.01434326171875,1.0693206787109375,-0.0968475341796875
2020-12-01 18:30:48.9960,-0.16815225780010226,-0.5028263926506042,0.14487436413764954,0.9408416748046876,1.0525360107421875,-0.109344482421875
2020-12-01 18:30:49.0270,-0.2266794890165329,-0.94524347782135,0.4651831388473511,0.8451995849609375,1.462432861328125,-0.1667022705078125
2020-12-01 18:30:49.0440,-0.17263275384902954,-1.299622893333435,0.7740703821182251,0.8451995849609375,1.462432861328125,-0.1667022705078125
2020-12-01 18:30:49.0610,-0.1622280478477478,-1.7674329280853271,1.1815990209579468,0.83233642578125,1.6473541259765625,-0.1544342041015625
2020-12-01 18:30:49.0770,-0.1218675822019577,-2.088279485702514,1.614952564239502,0.7742767333984375,1.6801300048828125,-0.1375885009765625
2020-12-01 18:30:49.0960,-0.04455308616161346,-2.4214766025543213,1.9661753177642824,0.6789398193359375,1.5457916259765625,-0.0801849365234375
2020-12-01 18:30:49.1270,0.042213235050439835,-2.5130457878112797,2.2591798305511475,0.57708740234375,1.6692352294921875,-0.0048980712890625
2020-12-01 18:30:49.1440,0.22961801290512085,-2.177328109741211,2.6495747566223145,0.57708740234375,1.6692352294921875,-0.0048980712890625
2020-12-01 18:30:49.1600,0.4097704589366913,-1.610084891319275,3.0490233898162837,0.4626312255859375,1.6057281494140625,0.071197509765625
2020-12-01 18:30:49.1770,0.40934568643569946,-1.24053692817688,3.4001166820526123,0.3664093017578125,1.293701171875,0.124298095703125
2020-12-01 18:30:49.1960,-0.0011054781498387458,-0.8302764296531677,3.5600426197052,0.3167572021484375,0.8564300537109375,0.1222991943359375
2020-12-01 18:30:49.2270,-0.2902339696884155,-0.6285169124603271,3.6462302207946777,0.2873992919921875,0.937286376953125,0.0679779052734375
2020-12-01 18:30:49.2440,-0.4625740349292755,-0.9063666462898254,3.6332950592041016,0.2873992919921875,0.937286376953125,0.0679779052734375
2020-12-01 18:30:49.2600,-0.51091468334198,-1.3813486099243164,3.5252060890197754,0.259002685546875,0.884918212890625,0.022491455078125
2020-12-01 18:30:49.2780,-0.4200532138347626,-1.843799352645874,3.4525661468505864,0.201934814453125,0.8293609619140625,0.0039520263671875
2020-12-01 18:30:49.2960,-0.2591373026371002,-2.1572637557983403,3.338158369064331,0.1230621337890625,0.7662506103515625,0.0029754638671875
2020-12-01 18:30:49.3270,-0.3095120489597321,-2.4431476593017583,3.038733959197998,-0.0180511474609375,0.7701416015625,0.110931396484375
2020-12-01 18:30:49.3440,-0.5176790952682495,-2.530675411224365,2.522583484649658,-0.0180511474609375,0.7701416015625,0.110931396484375
2020-12-01 18:30:49.3600,-0.6680979132652283,-2.546353816986084,1.959241271018982,-0.0716094970703125,0.851715087890625,0.1082305908203125
2020-12-01 18:30:49.3770,-0.7313479781150818,-2.330336332321167,1.6972203254699707,-0.118133544921875,0.811065673828125,0.109893798828125
2020-12-01 18:30:49.3960,-0.6491737365722656,-1.8872389793396,1.565080642700195,-0.131927490234375,0.6826019287109375,0.1059417724609375
2020-12-01 18:30:49.4270,-0.6444575190544128,-1.4446791410446167,1.1296184062957764,-0.2197113037109375,0.834075927734375,0.0076141357421875
2020-12-01 18:30:49.4440,-0.5878121256828308,-1.0033762454986572,0.26830682158470154,-0.2197113037109375,0.834075927734375,0.0076141357421875
2020-12-01 18:30:49.4600,-0.3673777580261231,-0.4418836832046509,-0.6769158840179443,-0.1987457275390625,1.0939788818359375,-0.062957763671875
2020-12-01 18:30:49.4770,-0.16086532175540924,-0.046713441610336304,-1.3804851770401,-0.1069183349609375,1.2121124267578125,-0.07159423828125
2020-12-01 18:30:49.4960,-0.12965333461761475,0.1936269849538803,-1.6763651371002195,-0.0065155029296875,1.1006317138671875,-0.0662994384765625
2020-12-01 18:30:49.5270,-0.033951841294765465,0.2826266288757324,-1.6528723239898682,0.106964111328125,1.03790283203125,-0.1027679443359375
2020-12-01 18:30:49.5440,0.06634733080863953,0.34365591406822205,-1.5884793996810913,0.22515869140625,1.2177886962890625,-0.1890106201171875
2020-12-01 18:30:49.5600,0.11412577331066133,0.3529082536697388,-1.846384167671204,0.2166748046875,1.468017578125,-0.1605377197265625
2020-12-01 18:30:49.5770,0.12405190616846085,0.5361267924308777,-2.2728540897369385,0.1688690185546875,1.598907470703125,-0.0671539306640625
2020-12-01 18:30:49.5960,-0.11465973407030106,0.8168079853057861,-2.7283451557159424,0.159942626953125,1.610809326171875,-0.0569305419921875
2020-12-01 18:30:49.6270,-0.4099624752998352,1.215896487236023,-3.12865686416626,0.2281036376953125,1.6613922119140625,-0.0942230224609375
2020-12-01 18:30:49.6440,-0.55141282081604,1.7415323257446291,-3.2448608875274663,0.2993011474609375,1.7548675537109375,-0.096405029296875
2020-12-01 18:30:49.6600,-0.5228924751281738,2.262326240539551,-3.1514892578125,0.34368896484375,1.757537841796875,-0.0902099609375
2020-12-01 18:30:49.6770,-0.5495832562446594,2.749799489974976,-3.079354286193848,0.3898773193359375,1.5634613037109375,-0.0803375244140625
2020-12-01 18:30:49.6960,-0.5495832562446594,2.749799489974976,-3.079354286193848,0.4659576416015625,1.2934112548828125,-0.0961151123046875
2020-12-01 18:30:49.7270,-0.5766431093215942,2.605995178222656,-2.6532678604125977,0.543487548828125,0.9580230712890624,-0.1609344482421875
2020-12-01 18:30:49.7440,-0.4556815028190613,2.2689189910888667,-2.2813963890075684,0.5691070556640625,0.7841644287109375,-0.1363677978515625
2020-12-01 18:30:49.7610,-0.24699513614177704,1.6987484693527222,-1.8921152353286743,0.51519775390625,0.861663818359375,-0.171630859375
2020-12-01 18:30:49.7770,-0.1625542938709259,1.209600806236267,-1.7252650260925293,0.472320556640625,0.77081298828125,-0.1403045654296875
2020-12-01 18:30:49.7960,-0.1625542938709259,1.209600806236267,-1.7252650260925293,0.4207916259765625,0.73321533203125,-0.1197357177734375
2020-12-01 18:30:49.8270,-0.28534626960754395,0.663794755935669,-1.661186933517456,0.4061431884765625,0.7548675537109375,-0.1070404052734375
2020-12-01 18:30:49.8440,-0.2908480763435364,0.8789044022560121,-1.510226130485535,0.4187469482421875,0.748046875,-0.165924072265625
2020-12-01 18:30:49.8610,-0.07730544358491898,1.3605648279190063,-1.4227037429809568,0.3905181884765625,0.763031005859375,-0.1928253173828125
2020-12-01 18:30:49.8770,0.21802234649658206,1.7068806886672974,-1.4441877603530884,0.3499298095703125,0.7457427978515625,-0.2075042724609375
2020-12-01 18:30:49.8960,0.21802234649658206,1.7068806886672974,-1.4441877603530884,0.4095611572265625,0.73077392578125,-0.1884002685546875
2020-12-01 18:30:49.9270,0.4164496958255768,2.3137094974517822,-1.2919665575027466,0.5403900146484375,0.779327392578125,-0.19549560546875
2020-12-01 18:30:49.9440,0.3468975126743317,2.2580182552337646,-1.1696912050247192,0.65277099609375,0.81011962890625,-0.198883056640625
2020-12-01 18:30:49.9600,0.2629908919334412,1.9960572719573972,-1.0566331148147583,0.688140869140625,0.77984619140625,-0.174560546875
2020-12-01 18:30:49.9770,0.2629908919334412,1.9960572719573972,-1.0566331148147583,0.68951416015625,0.872222900390625,-0.177001953125
2020-12-01 18:30:49.9960,0.27025625109672546,1.4945122003555298,-1.022052526473999,0.7108612060546875,1.074493408203125,-0.17230224609375
2020-12-01 18:30:50.0270,0.16203418374061584,0.7492218017578125,-0.9067009091377258,0.7849884033203125,1.2157745361328125,-0.155242919921875
2020-12-01 18:30:50.0440,0.06073898077011109,0.9875624179840088,-0.3957694470882416,0.798187255859375,1.213226318359375,-0.082122802734375
2020-12-01 18:30:50.0610,-0.08151669800281525,1.1944674253463743,0.020724985748529438,0.7377471923828125,1.14862060546875,-0.06378173828125
2020-12-01 18:30:50.0770,-0.08151669800281525,1.1944674253463743,0.020724985748529438,0.73724365234375,1.149749755859375,-0.0825958251953125
2020-12-01 18:30:50.0960,-0.2711063325405121,0.9180736541748048,0.2476745098829269,0.802032470703125,1.2501373291015625,-0.13922119140625
2020-12-01 18:30:50.1270,-0.3001270592212677,-0.7552890181541443,0.858433723449707,0.8489227294921875,1.4126739501953125,-0.1833038330078125
2020-12-01 18:30:50.1440,-0.2789791822433472,-1.539316177368164,1.6201766729354858,0.900909423828125,1.5617218017578125,-0.1739044189453125
2020-12-01 18:30:50.1600,-0.2355632483959198,-2.1905803680419917,2.4144163131713867,0.844757080078125,1.560089111328125,-0.116119384765625
2020-12-01 18:30:50.1770,-0.2355632483959198,-2.1905803680419917,2.4144163131713867,0.7039794921875,1.4376373291015625,-0.0587005615234375
2020-12-01 18:30:50.1960,-0.206015482544899,-2.6833391189575195,2.8838520050048833,0.5745697021484375,1.3727264404296875,-0.0064697265625
2020-12-01 18:30:50.2270,-0.290427029132843,-3.207810640335083,3.206401824951172,0.4871673583984375,1.361724853515625,0.027984619140625
2020-12-01 18:30:50.2440,-0.2937996685504913,-2.750903367996216,3.458076477050781,0.4504241943359375,1.349029541015625,0.01824951171875
2020-12-01 18:30:50.2600,-0.11735938489437105,-2.0777273178100586,3.7713446617126474,0.37744140625,1.2533721923828125,-0.0070648193359375
2020-12-01 18:30:50.2770,-0.11735938489437105,-2.0777273178100586,3.7713446617126474,0.2801055908203125,1.1451263427734375,-0.03131103515625
2020-12-01 18:30:50.2960,0.07491472363471985,-1.4563267230987549,3.895857095718384,0.2162933349609375,1.01129150390625,-0.0447845458984375
2020-12-01 18:30:50.3270,0.18078762292861936,-0.6708201766014099,3.6683626174926762,0.2014923095703125,0.9456787109375,-0.0278167724609375
2020-12-01 18:30:50.3440,0.18191947042942047,-0.5728030800819397,3.5732662677764893,0.2061920166015625,0.9421539306640624,-0.0253448486328125
2020-12-01 18:30:50.3610,0.21377725899219516,-0.5709266066551208,3.521469116210937,0.1822509765625,0.89874267578125,-0.032958984375
2020-12-01 18:30:50.3770,0.21377725899219516,-0.5709266066551208,3.521469116210937,0.1395721435546875,0.8419036865234375,-0.0123291015625
2020-12-01 18:30:50.3960,0.2321216464042664,-0.5792719125747681,3.389600276947021,0.085479736328125,0.8053131103515625,0.01019287109375
2020-12-01 18:30:50.4270,0.18660131096839905,-0.47258645296096796,2.799499034881592,0.03546142578125,0.8802337646484375,-0.001373291015625
2020-12-01 18:30:50.4440,0.23786503076553345,-0.35539138317108154,2.477917194366455,-0.0326690673828125,0.9985198974609376,0.00323486328125
2020-12-01 18:30:50.4600,0.23786503076553345,-0.35539138317108154,2.477917194366455,-0.1057281494140625,0.950408935546875,0.02777099609375
2020-12-01 18:30:50.4770,0.26868259906768804,-0.17954686284065247,2.0782308578491206,-0.1286773681640625,0.913726806640625,0.0538482666015625
2020-12-01 18:30:50.4960,0.1981825977563858,-0.16706222295761108,1.5211043357849119,-0.0937347412109375,0.971832275390625,0.0480194091796875
2020-12-01 18:30:50.5270,-0.118296280503273,-0.22667628526687625,0.4565970897674561,-0.0250701904296875,1.10076904296875,0.00360107421875
2020-12-01 18:30:50.5440,-0.13378575444221494,-0.11855114996433258,0.0068565746769309035,0.024871826171875,1.144744873046875,-0.0560302734375
2020-12-01 18:30:50.5600,-0.13378575444221494,-0.11855114996433258,0.0068565746769309035,0.0330352783203125,1.146514892578125,-0.09271240234375
2020-12-01 18:30:50.5770,-0.02661003917455673,0.2102043628692627,-0.4950249195098877,0.038970947265625,1.12164306640625,-0.123809814453125
2020-12-01 18:30:50.5960,0.09574090689420699,0.5865841507911682,-1.0563383102416992,0.0418701171875,1.1444854736328125,-0.1501922607421875
2020-12-01 18:30:50.6270,0.3624032139778137,1.279770016670227,-2.219330072402954,0.0795745849609375,1.2452392578125,-0.14337158203125
2020-12-01 18:30:50.6440,0.3689956068992615,1.3284175395965576,-2.811177015304565,0.137603759765625,1.355743408203125,-0.119476318359375
2020-12-01 18:30:50.6610,0.3689956068992615,1.3284175395965576,-2.811177015304565,0.2019500732421875,1.4549102783203125,-0.0978240966796875
2020-12-01 18:30:50.6770,0.2661270201206207,1.3115730285644531,-3.3431527614593506,0.2828521728515625,1.5784149169921875,-0.1065521240234375
2020-12-01 18:30:50.6960,0.14406955242156982,1.2280656099319458,-3.801173210144043,0.38232421875,1.712127685546875,-0.13134765625
2020-12-01 18:30:50.7270,-0.018786737695336345,0.7830132842063904,-4.074879169464111,0.456298828125,1.7314910888671875,-0.1115570068359375
2020-12-01 18:30:50.7440,-0.1827240139245987,0.7687163949012756,-3.8572962284088135,0.496856689453125,1.564300537109375,-0.0996856689453125
2020-12-01 18:30:50.7610,-0.1827240139245987,0.7687163949012756,-3.8572962284088135,0.5396270751953125,1.32769775390625,-0.111907958984375
2020-12-01 18:30:50.7770,-0.3897509574890137,0.8415226936340332,-3.553674459457397,0.5745391845703125,1.011688232421875,-0.2052154541015625
2020-12-01 18:30:50.7960,-0.395364910364151,0.7567406892776489,-3.095191478729248,0.5605621337890625,0.81219482421875,-0.1920013427734375
2020-12-01 18:30:50.8270,0.06492387503385544,0.692398726940155,-2.334939479827881,0.4525604248046875,0.810150146484375,-0.2205810546875
2020-12-01 18:30:50.8440,0.2605482339859009,0.8638077378273009,-1.8801888227462769,0.443878173828125,0.6797637939453125,-0.1721649169921875
2020-12-01 18:30:50.8610,0.2605482339859009,0.8638077378273009,-1.8801888227462769,0.3997039794921875,0.640411376953125,-0.1181793212890625
2020-12-01 18:30:50.8770,0.3120386004447937,1.039303421974182,-1.7157971858978271,0.323638916015625,0.7080841064453125,-0.0930023193359375
2020-12-01 18:30:50.8960,0.2804276645183563,1.142438292503357,-1.82798445224762,0.3106689453125,0.8330230712890625,-0.0773468017578125
2020-12-01 18:30:50.9270,0.2674436867237091,1.146754264831543,-2.1483418941497803,0.358978271484375,0.927093505859375,-0.10980224609375
2020-12-01 18:30:50.9440,0.3888598680496216,1.0792868137359621,-2.2351748943328857,0.3759002685546875,0.9459991455078124,-0.136260986328125
2020-12-01 18:30:50.9610,0.3888598680496216,1.0792868137359621,-2.2351748943328857,0.3809814453125,0.9069366455078124,-0.135162353515625
2020-12-01 18:30:50.9770,0.4915391206741333,1.0983198881149292,-2.2739949226379395,0.416717529296875,0.90411376953125,-0.125762939453125
2020-12-01 18:30:50.9960,0.5094763040542603,1.1866707801818848,-2.294267177581787,0.416717529296875,0.90411376953125,-0.125762939453125
2020-12-01 18:30:51.0270,0.4297913312911987,1.2154808044433594,-2.167778491973877,0.5110321044921875,1.12774658203125,-0.094024658203125
2020-12-01 18:30:51.0440,0.4297913312911987,1.2154808044433594,-2.167778491973877,0.5609588623046875,1.3186492919921875,-0.0977935791015625
2020-12-01 18:30:51.0610,0.38847291469573975,1.0967504978179932,-2.08685040473938,0.62725830078125,1.43377685546875,-0.0863189697265625
2020-12-01 18:30:51.0770,0.32604682445526123,1.0064911842346191,-1.8540722131729128,0.704498291015625,1.3225250244140625,-0.0443878173828125
2020-12-01 18:30:51.0960,0.1817849725484848,1.1063638925552368,-1.41849684715271,0.704498291015625,1.3225250244140625,-0.0443878173828125
2020-12-01 18:30:51.1270,-0.3794205486774445,1.0075755119323728,-0.30290579795837397,0.777191162109375,1.0467681884765625,-0.048614501953125
2020-12-01 18:30:51.1440,-0.3794205486774445,1.0075755119323728,-0.30290579795837397,0.822998046875,1.1339569091796875,-0.1102294921875
2020-12-01 18:30:51.1610,-0.4966015219688416,0.478596955537796,0.2434890866279602,0.85498046875,1.2989349365234375,-0.196014404296875
2020-12-01 18:30:51.1770,-0.3351830542087555,-0.2978074550628662,0.7265204787254333,0.85498046875,1.2989349365234375,-0.196014404296875
2020-12-01 18:30:51.1960,-0.19423019886016848,-1.1031500101089478,1.3911384344100952,0.850250244140625,1.4681854248046875,-0.1963043212890625
2020-12-01 18:30:51.2270,-0.33637189865112305,-1.7131105661392212,2.8455309867858887,0.697052001953125,1.3465118408203125,-0.10162353515625
2020-12-01 18:30:51.2440,-0.33637189865112305,-1.7131105661392212,2.8455309867858887,0.5628814697265625,1.3204498291015625,-0.0608367919921875
2020-12-01 18:30:51.2610,-0.3503319025039673,-1.916420340538025,3.248915433883667,0.457427978515625,1.273406982421875,-0.00433349609375
2020-12-01 18:30:51.2770,-0.4039887487888336,-2.27064061164856,3.4020154476165767,0.457427978515625,1.273406982421875,-0.00433349609375
2020-12-01 18:30:51.2960,-0.4827573299407959,-2.65299654006958,3.3177435398101807,0.3937225341796875,1.2355499267578125,0.0279083251953125
2020-12-01 18:30:51.3270,-0.40503084659576416,-3.195607900619507,3.3607997894287114,0.4117279052734375,1.2503814697265625,-0.0232696533203125
2020-12-01 18:30:51.3440,-0.40503084659576416,-3.195607900619507,3.3607997894287114,0.3730010986328125,1.1403656005859375,-0.0166473388671875
2020-12-01 18:30:51.3610,-0.16627445816993713,-3.03603458404541,3.5394895076751713,0.29620361328125,1.047119140625,-0.004791259765625
2020-12-01 18:30:51.3770,0.06533559411764145,-2.6036722660064697,3.6667943000793457,0.29620361328125,1.047119140625,-0.004791259765625
2020-12-01 18:30:51.3960,0.15840482711791992,-1.5832953453063965,3.729089975357056,0.2350311279296875,0.987152099609375,0.038604736328125
2020-12-01 18:30:51.4270,0.20788395404815674,-0.02352822944521904,3.611236572265625,0.1486358642578125,1.026641845703125,0.00750732421875
2020-12-01 18:30:51.4440,0.20788395404815674,-0.02352822944521904,3.611236572265625,0.170806884765625,0.9958648681640624,-0.0153045654296875
2020-12-01 18:30:51.4610,0.223930299282074,0.11168684810400008,3.556368589401245,0.167877197265625,0.978118896484375,-0.016448974609375
2020-12-01 18:30:51.4770,0.20633213222026825,-0.055994026362895966,3.426945209503174,0.167877197265625,0.978118896484375,-0.016448974609375
2020-12-01 18:30:51.4960,0.20593585073947904,-0.4610597491264343,3.2533059120178223,0.137664794921875,0.993072509765625,-0.0202484130859375
