
time,wx,wy,wz,ax,ay,az,
0.004,0.51,0.11,-0.00,0.79,-0.40,-0.45,
0.004,0.51,0.11,-0.00,0.86,-0.37,-0.67,
0.005,0.47,0.09,-0.03,0.86,-0.37,-0.67,
0.005,0.47,0.09,-0.03,0.80,-0.40,-1.00,
0.005,0.42,0.08,-0.06,0.80,-0.40,-1.00,
0.006,0.42,0.08,-0.06,0.66,-0.41,-1.35,
0.006,0.36,0.07,-0.08,0.66,-0.41,-1.35,
0.006,0.36,0.07,-0.08,0.49,-0.40,-1.60,
0.009,0.29,0.07,-0.09,0.49,-0.40,-1.60,
0.01,0.29,0.07,-0.09,0.34,-0.36,-1.73,
0.019,0.22,0.08,-0.10,0.34,-0.36,-1.73,
0.019,0.22,0.08,-0.10,0.25,-0.29,-1.78,
0.02,0.22,0.08,-0.10,0.17,-0.18,-1.78,
0.02,0.15,0.07,-0.11,0.17,-0.18,-1.78,
0.027,0.08,0.07,-0.12,0.17,-0.18,-1.78,
0.027,0.08,0.07,-0.12,0.13,-0.07,-1.68,
0.028,0.01,0.06,-0.13,0.13,-0.07,-1.68,
0.028,0.01,0.06,-0.13,0.05,0.00,-1.56,
0.032,0.01,0.06,-0.13,-0.01,0.02,-1.38,
0.033,-0.05,0.05,-0.14,-0.01,0.02,-1.38,
0.038,-0.12,0.03,-0.14,-0.01,0.02,-1.38,
0.038,-0.12,0.03,-0.14,-0.05,-0.02,-1.18,
0.042,-0.17,0.02,-0.15,-0.05,-0.02,-1.18,
0.042,-0.17,0.02,-0.15,-0.08,-0.10,-0.96,
0.047,-0.23,-0.01,-0.17,-0.08,-0.10,-0.96,
0.048,-0.23,-0.01,-0.17,-0.09,-0.17,-0.72,
0.052,-0.28,-0.06,-0.18,-0.09,-0.17,-0.72,
0.052,-0.28,-0.06,-0.18,-0.16,-0.15,-0.45,
0.056,-0.32,-0.12,-0.19,-0.16,-0.15,-0.45,
0.057,-0.32,-0.12,-0.19,-0.22,-0.16,-0.24,
0.061,-0.37,-0.20,-0.20,-0.22,-0.16,-0.24,
0.061,-0.37,-0.20,-0.20,-0.17,-0.17,-0.01,
0.067,-0.40,-0.27,-0.21,-0.17,-0.17,-0.01,
0.068,-0.40,-0.27,-0.21,-0.18,-0.16,0.19,
0.072,-0.43,-0.35,-0.22,-0.18,-0.16,0.19,
0.072,-0.43,-0.35,-0.22,-0.28,-0.10,0.35,
0.078,-0.44,-0.40,-0.21,-0.28,-0.10,0.35,
0.078,-0.44,-0.40,-0.21,-0.26,-0.04,0.66,
0.088,-0.43,-0.45,-0.21,-0.26,-0.04,0.66,
0.088,-0.43,-0.45,-0.21,-0.21,0.07,0.93,
0.089,-0.40,-0.47,-0.21,-0.21,0.07,0.93,
0.089,-0.40,-0.47,-0.21,-0.02,0.12,1.25,
0.091,-0.35,-0.48,-0.21,-0.02,0.12,1.25,
0.091,-0.35,-0.48,-0.21,0.12,0.13,1.50,
0.096,-0.28,-0.46,-0.21,0.12,0.13,1.50,
0.096,-0.28,-0.46,-0.21,0.31,0.08,1.75,
0.1,-0.28,-0.46,-0.21,0.37,0.02,1.89,
0.101,-0.20,-0.42,-0.23,0.37,0.02,1.89,
0.105,-0.11,-0.37,-0.24,0.37,0.02,1.89,
0.105,-0.11,-0.37,-0.24,0.34,-0.04,2.04,
0.11,-0.02,-0.33,-0.24,0.34,-0.04,2.04,
0.11,-0.02,-0.33,-0.24,0.45,-0.18,2.28,
0.115,0.07,-0.29,-0.26,0.45,-0.18,2.28,
0.115,0.07,-0.29,-0.26,0.52,-0.38,2.47,
0.12,0.16,-0.28,-0.27,0.52,-0.38,2.47,
0.121,0.16,-0.28,-0.27,0.75,-0.61,2.78,
0.124,0.26,-0.30,-0.30,0.75,-0.61,2.78,
0.124,0.26,-0.30,-0.30,0.97,-0.83,3.03,
0.129,0.35,-0.36,-0.34,0.97,-0.83,3.03,
0.129,0.35,-0.36,-0.34,1.12,-0.95,3.02,
0.134,0.43,-0.44,-0.38,1.12,-0.95,3.02,
0.134,0.43,-0.44,-0.38,1.25,-1.00,2.90,
0.139,0.50,-0.54,-0.43,1.25,-1.00,2.90,
0.139,0.50,-0.54,-0.43,1.26,-0.97,2.75,
0.144,0.56,-0.64,-0.47,1.26,-0.97,2.75,
0.144,0.56,-0.64,-0.47,1.22,-0.88,2.57,
0.149,0.61,-0.75,-0.51,1.22,-0.88,2.57,
0.149,0.61,-0.75,-0.51,1.13,-0.76,2.29,
0.155,0.65,-0.85,-0.55,1.13,-0.76,2.29,
0.156,0.65,-0.85,-0.55,1.05,-0.60,1.98,
0.16,0.68,-0.93,-0.58,1.05,-0.60,1.98,
0.161,0.68,-0.93,-0.58,0.94,-0.42,1.58,
0.165,0.71,-0.99,-0.61,0.94,-0.42,1.58,
0.165,0.71,-0.99,-0.61,0.80,-0.25,1.17,
0.168,0.71,-0.99,-0.61,0.65,-0.13,0.83,
0.168,0.73,-1.02,-0.63,0.65,-0.13,0.83,
0.173,0.75,-1.03,-0.65,0.65,-0.13,0.83,
0.174,0.75,-1.03,-0.65,0.48,-0.03,0.51,
0.178,0.77,-1.02,-0.66,0.48,-0.03,0.51,
0.178,0.77,-1.02,-0.66,0.27,0.04,0.25,
0.183,0.79,-0.99,-0.67,0.27,0.04,0.25,
0.184,0.79,-0.99,-0.67,0.07,0.08,0.04,
0.189,0.81,-0.95,-0.67,0.07,0.08,0.04,
0.189,0.81,-0.95,-0.67,-0.14,0.12,-0.17,
0.193,0.82,-0.91,-0.66,-0.14,0.12,-0.17,
0.193,0.82,-0.91,-0.66,-0.37,0.19,-0.39,
0.206,0.84,-0.86,-0.64,-0.37,0.19,-0.39,
0.207,0.84,-0.86,-0.64,-0.63,0.26,-0.62,
0.207,0.83,-0.81,-0.62,-0.63,0.26,-0.62,
0.208,0.83,-0.81,-0.62,-0.81,0.33,-0.81,
0.208,0.82,-0.77,-0.59,-0.81,0.33,-0.81,
0.208,0.82,-0.77,-0.59,-0.97,0.36,-1.00,
0.214,0.80,-0.73,-0.55,-0.97,0.36,-1.00,
0.215,0.80,-0.73,-0.55,-1.11,0.42,-1.15,
0.218,0.76,-0.70,-0.52,-1.11,0.42,-1.15,
0.219,0.76,-0.70,-0.52,-1.21,0.47,-1.25,
0.222,0.73,-0.68,-0.48,-1.21,0.47,-1.25,
0.222,0.73,-0.68,-0.48,-1.28,0.54,-1.28,
0.226,0.69,-0.64,-0.44,-1.28,0.54,-1.28,
0.227,0.69,-0.64,-0.44,-1.32,0.61,-1.28,
0.258,0.65,-0.60,-0.39,-1.32,0.61,-1.28,
0.258,0.65,-0.60,-0.39,-1.33,0.66,-1.20,
0.259,0.62,-0.56,-0.35,-1.33,0.66,-1.20,
0.259,0.62,-0.56,-0.35,-1.35,0.72,-1.07,
0.26,0.60,-0.53,-0.30,-1.35,0.72,-1.07,
0.26,0.60,-0.53,-0.30,-1.31,0.70,-0.89,
0.261,0.58,-0.50,-0.25,-1.31,0.70,-0.89,
0.263,0.58,-0.50,-0.25,-1.28,0.62,-0.65,
0.263,0.58,-0.50,-0.25,-1.24,0.52,-0.41,
0.264,0.58,-0.50,-0.25,-1.20,0.41,-0.17,
0.264,0.56,-0.50,-0.21,-1.20,0.41,-0.17,
0.265,0.54,-0.52,-0.17,-1.20,0.41,-0.17,
0.265,0.54,-0.52,-0.17,-1.15,0.27,0.05,
0.265,0.51,-0.59,-0.14,-1.15,0.27,0.05,
0.266,0.47,-0.67,-0.12,-1.15,0.27,0.05,
0.267,0.47,-0.67,-0.12,-1.07,0.13,0.24,
0.271,0.42,-0.78,-0.11,-1.07,0.13,0.24,
0.272,0.42,-0.78,-0.11,-1.01,-0.01,0.39,
0.276,0.38,-0.89,-0.11,-1.01,-0.01,0.39,
0.276,0.38,-0.89,-0.11,-0.94,-0.08,0.48,
0.281,0.33,-1.02,-0.11,-0.94,-0.08,0.48,
0.281,0.33,-1.02,-0.11,-0.88,-0.11,0.57,
0.286,0.29,-1.14,-0.12,-0.88,-0.11,0.57,
0.287,0.29,-1.14,-0.12,-0.80,-0.13,0.69,
0.291,0.26,-1.27,-0.14,-0.80,-0.13,0.69,
0.291,0.26,-1.27,-0.14,-0.76,-0.10,0.81,
0.296,0.26,-1.27,-0.14,-0.80,0.01,0.87,
0.296,0.24,-1.39,-0.15,-0.80,0.01,0.87,
0.299,0.23,-1.49,-0.15,-0.80,0.01,0.87,
0.3,0.23,-1.49,-0.15,-0.90,0.15,0.85,
0.304,0.23,-1.56,-0.15,-0.90,0.15,0.85,
0.305,0.23,-1.56,-0.15,-0.99,0.24,0.81,
0.309,0.24,-1.61,-0.13,-0.99,0.24,0.81,
0.309,0.24,-1.61,-0.13,-1.11,0.29,0.74,
0.314,0.24,-1.61,-0.13,-1.25,0.36,0.55,
0.315,0.27,-1.62,-0.11,-1.25,0.36,0.55,
0.319,0.27,-1.62,-0.11,-1.40,0.43,0.31,
0.319,0.29,-1.60,-0.07,-1.40,0.43,0.31,
0.323,0.31,-1.53,-0.03,-1.40,0.43,0.31,
0.324,0.31,-1.53,-0.03,-1.57,0.51,0.20,
0.329,0.31,-1.53,-0.03,-1.64,0.50,0.24,
0.33,0.32,-1.44,0.04,-1.64,0.50,0.24,
0.333,0.32,-1.44,0.04,-1.54,0.47,0.53,
0.334,0.33,-1.35,0.11,-1.54,0.47,0.53,
0.338,0.33,-1.35,0.11,-1.45,0.44,0.84,
0.338,0.35,-1.32,0.19,-1.45,0.44,0.84,
0.343,0.35,-1.32,0.19,-1.43,0.31,0.95,
0.343,0.36,-1.33,0.28,-1.43,0.31,0.95,
0.348,0.37,-1.38,0.37,-1.43,0.31,0.95,
0.348,0.37,-1.38,0.37,-1.36,0.08,0.93,
0.353,0.37,-1.38,0.37,-1.20,-0.20,0.87,
0.353,0.37,-1.43,0.46,-1.20,-0.20,0.87,
0.357,0.37,-1.43,0.46,-1.00,-0.50,0.72,
0.357,0.37,-1.48,0.54,-1.00,-0.50,0.72,
0.362,0.37,-1.48,0.54,-0.79,-0.78,0.54,
0.363,0.36,-1.52,0.61,-0.79,-0.78,0.54,
0.367,0.34,-1.56,0.68,-0.79,-0.78,0.54,
0.368,0.34,-1.56,0.68,-0.55,-0.94,0.35,
0.372,0.34,-1.56,0.68,-0.30,-1.05,0.19,
0.372,0.30,-1.60,0.73,-0.30,-1.05,0.19,
0.377,0.30,-1.60,0.73,-0.05,-1.16,0.17,
0.377,0.24,-1.66,0.78,-0.05,-1.16,0.17,
0.382,0.17,-1.74,0.82,-0.05,-1.16,0.17,
0.383,0.17,-1.74,0.82,0.27,-1.36,0.13,
0.387,0.17,-1.74,0.82,0.66,-1.57,0.01,
0.387,0.10,-1.84,0.84,0.66,-1.57,0.01,
0.391,0.01,-1.94,0.84,0.66,-1.57,0.01,
0.392,0.01,-1.94,0.84,1.04,-1.81,-0.04,
0.397,-0.07,-2.05,0.83,1.04,-1.81,-0.04,
0.399,-0.07,-2.05,0.83,1.43,-1.96,-0.11,
0.401,-0.16,-2.14,0.79,1.43,-1.96,-0.11,
0.402,-0.16,-2.14,0.79,1.80,-2.00,-0.28,
0.406,-0.25,-2.21,0.74,1.80,-2.00,-0.28,
0.407,-0.25,-2.21,0.74,2.09,-1.93,-0.42,
0.411,-0.34,-2.26,0.68,2.09,-1.93,-0.42,
0.414,-0.34,-2.26,0.68,2.41,-1.78,-0.58,
0.417,-0.43,-2.29,0.61,2.41,-1.78,-0.58,
0.418,-0.43,-2.29,0.61,2.71,-1.65,-0.68,
0.421,-0.51,-2.28,0.53,2.71,-1.65,-0.68,
0.421,-0.51,-2.28,0.53,2.99,-1.55,-0.67,
0.425,-0.51,-2.28,0.53,3.24,-1.44,-0.64,
0.426,-0.58,-2.27,0.43,3.24,-1.44,-0.64,
0.434,-0.63,-2.24,0.33,3.24,-1.44,-0.64,
0.435,-0.63,-2.24,0.33,3.38,-1.30,-0.68,
0.44,-0.68,-2.20,0.23,3.38,-1.30,-0.68,
0.441,-0.68,-2.20,0.23,3.36,-1.20,-0.81,
0.441,-0.72,-2.15,0.13,3.36,-1.20,-0.81,
0.442,-0.72,-2.15,0.13,3.24,-1.16,-1.03,
0.447,-0.75,-2.07,0.04,3.24,-1.16,-1.03,
0.448,-0.75,-2.07,0.04,3.04,-1.16,-1.24,
0.451,-0.79,-1.96,-0.04,3.04,-1.16,-1.24,
0.452,-0.79,-1.96,-0.04,2.71,-1.16,-1.49,
0.455,-0.82,-1.82,-0.10,2.71,-1.16,-1.49,
0.455,-0.82,-1.82,-0.10,2.49,-1.14,-1.45,
0.459,-0.85,-1.68,-0.15,2.49,-1.14,-1.45,
0.46,-0.85,-1.68,-0.15,2.37,-1.09,-1.07,
0.464,-0.87,-1.61,-0.18,2.37,-1.09,-1.07,
0.466,-0.87,-1.61,-0.18,2.15,-0.98,-0.75,
0.469,-0.91,-1.61,-0.20,2.15,-0.98,-0.75,
0.47,-0.91,-1.61,-0.20,2.02,-0.97,-0.60,
0.497,-0.96,-1.65,-0.22,2.02,-0.97,-0.60,
0.498,-0.96,-1.65,-0.22,1.92,-1.05,-0.54,
0.498,-1.02,-1.72,-0.23,1.92,-1.05,-0.54,
0.499,-1.02,-1.72,-0.23,1.84,-1.27,-0.56,
0.499,-1.09,-1.81,-0.25,1.84,-1.27,-0.56,
0.499,-1.09,-1.81,-0.25,1.72,-1.56,-0.57,
0.5,-1.18,-1.92,-0.28,1.72,-1.56,-0.57,
0.5,-1.18,-1.92,-0.28,1.61,-1.86,-0.47,
0.501,-1.27,-2.05,-0.30,1.61,-1.86,-0.47,
0.501,-1.27,-2.05,-0.30,1.19,-2.04,-0.37,
0.501,-1.36,-2.20,-0.31,1.19,-2.04,-0.37,
0.501,-1.36,-2.20,-0.31,0.82,-2.08,-0.34,
0.503,-1.46,-2.36,-0.29,0.82,-2.08,-0.34,
0.507,-1.46,-2.36,-0.29,0.98,-1.75,-0.23,
0.508,-1.57,-2.50,-0.26,0.98,-1.75,-0.23,
0.509,-1.57,-2.50,-0.26,1.48,-1.56,-0.18,
0.513,-1.57,-2.50,-0.26,2.02,-1.43,-0.20,
0.514,-1.66,-2.61,-0.24,2.02,-1.43,-0.20,
0.518,-1.66,-2.61,-0.24,2.50,-1.28,-0.06,
0.518,-1.72,-2.68,-0.27,2.50,-1.28,-0.06,
0.523,-1.77,-2.74,-0.33,2.50,-1.28,-0.06,
0.524,-1.77,-2.74,-0.33,2.83,-1.14,0.06,
0.528,-1.77,-2.74,-0.33,2.98,-1.05,-0.00,
0.528,-1.80,-2.78,-0.42,2.98,-1.05,-0.00,
0.534,-1.80,-2.77,-0.52,2.98,-1.05,-0.00,
0.536,-1.80,-2.77,-0.52,2.96,-0.95,-0.17,
0.537,-1.80,-2.77,-0.52,2.79,-0.89,-0.32,
0.538,-1.78,-2.72,-0.62,2.79,-0.89,-0.32,
0.542,-1.74,-2.65,-0.70,2.79,-0.89,-0.32,
0.543,-1.74,-2.65,-0.70,2.54,-0.90,-0.48,
0.55,-1.68,-2.54,-0.78,2.54,-0.90,-0.48,
0.552,-1.68,-2.54,-0.78,2.26,-0.78,-0.50,
0.553,-1.68,-2.54,-0.78,1.96,-0.72,-0.66,
0.553,-1.61,-2.43,-0.84,1.96,-0.72,-0.66,
0.557,-1.52,-2.28,-0.89,1.96,-0.72,-0.66,
0.557,-1.52,-2.28,-0.89,1.64,-0.61,-0.89,
0.564,-1.52,-2.28,-0.89,1.28,-0.43,-1.17,
0.565,-1.42,-2.12,-0.94,1.28,-0.43,-1.17,
0.566,-1.42,-2.12,-0.94,0.82,-0.30,-1.59,
0.567,-1.33,-1.93,-0.96,0.82,-0.30,-1.59,
0.571,-1.25,-1.71,-0.98,0.82,-0.30,-1.59,
0.572,-1.25,-1.71,-0.98,-0.09,-0.28,-2.27,
0.577,-1.17,-1.44,-1.01,-0.09,-0.28,-2.27,
0.578,-1.17,-1.44,-1.01,-1.27,-0.05,-2.79,
0.581,-1.12,-1.17,-1.00,-1.27,-0.05,-2.79,
0.582,-1.12,-1.17,-1.00,-2.02,0.37,-2.95,
0.588,-1.07,-0.94,-0.95,-2.02,0.37,-2.95,
0.588,-1.07,-0.94,-0.95,-2.32,0.69,-2.86,
0.59,-1.04,-0.76,-0.87,-2.32,0.69,-2.86,
0.59,-1.04,-0.76,-0.87,-2.46,0.79,-2.79,
0.595,-1.02,-0.62,-0.80,-2.46,0.79,-2.79,
0.596,-1.02,-0.62,-0.80,-2.58,0.87,-2.69,
0.6,-1.01,-0.51,-0.75,-2.58,0.87,-2.69,
0.6,-1.01,-0.51,-0.75,-2.65,0.89,-2.71,
0.605,-1.00,-0.25,-0.71,-2.65,0.89,-2.71,
0.605,-1.00,-0.25,-0.71,-2.34,0.84,-2.46,
0.61,-1.00,-0.25,-0.71,-2.21,1.04,-1.07,
0.61,-0.93,0.36,-0.67,-2.21,1.04,-1.07,
0.615,-0.80,0.94,-0.64,-2.21,1.04,-1.07,
0.615,-0.80,0.94,-0.64,-2.51,1.50,0.45,
0.619,-0.80,0.94,-0.64,-2.63,1.62,1.31,
0.62,-0.67,1.15,-0.58,-2.63,1.62,1.31,
0.624,-0.67,1.15,-0.58,-2.47,1.37,2.84,
0.625,-0.53,1.24,-0.51,-2.47,1.37,2.84,
0.634,-0.53,1.24,-0.51,-2.45,1.21,4.75,
0.635,-0.41,1.36,-0.48,-2.45,1.21,4.75,
0.635,-0.41,1.36,-0.48,-3.05,1.74,5.61,
0.636,-0.29,1.40,-0.49,-3.05,1.74,5.61,
0.639,-0.29,1.40,-0.49,-3.10,2.71,5.52,
0.641,-0.22,1.31,-0.51,-3.10,2.71,5.52,
0.644,-0.15,1.16,-0.47,-3.10,2.71,5.52,
0.645,-0.15,1.16,-0.47,-1.86,3.30,4.91,
0.65,-0.05,1.03,-0.42,-1.86,3.30,4.91,
0.651,-0.05,1.03,-0.42,-0.79,3.35,3.82,
0.654,0.06,0.93,-0.38,-0.79,3.35,3.82,
0.654,0.06,0.93,-0.38,-0.08,2.98,2.75,
0.658,0.16,0.84,-0.35,-0.08,2.98,2.75,
0.659,0.16,0.84,-0.35,0.39,2.29,1.72,
0.665,0.25,0.79,-0.32,0.39,2.29,1.72,
0.666,0.25,0.79,-0.32,0.36,1.55,0.73,
0.668,0.31,0.80,-0.29,0.36,1.55,0.73,
0.669,0.31,0.80,-0.29,0.36,0.90,0.04,
0.673,0.35,0.83,-0.27,0.36,0.90,0.04,
0.674,0.35,0.83,-0.27,0.07,0.34,-0.69,
0.678,0.35,0.91,-0.27,0.07,0.34,-0.69,
0.679,0.35,0.91,-0.27,0.24,-0.00,-1.11,
0.683,0.33,0.99,-0.30,0.24,-0.00,-1.11,
0.684,0.33,0.99,-0.30,0.28,-0.14,-1.59,
0.688,0.28,1.06,-0.35,0.28,-0.14,-1.59,
0.688,0.28,1.06,-0.35,0.28,-0.10,-2.06,
0.692,0.22,1.14,-0.40,0.28,-0.10,-2.06,
0.693,0.22,1.14,-0.40,0.82,-0.02,-2.51,
0.698,0.15,1.23,-0.46,0.82,-0.02,-2.51,
0.699,0.15,1.23,-0.46,1.46,-0.13,-3.02,
0.702,0.10,1.39,-0.55,1.46,-0.13,-3.02,
0.703,0.10,1.39,-0.55,3.37,-0.49,-3.22,
0.707,0.05,1.59,-0.68,3.37,-0.49,-3.22,
0.708,0.05,1.59,-0.68,6.79,-1.01,-3.61,
0.714,0.05,1.59,-0.68,10.35,-1.61,-4.01,
0.715,-0.01,1.82,-0.87,10.35,-1.61,-4.01,
0.742,-0.07,1.99,-1.15,10.35,-1.61,-4.01,
0.743,-0.07,1.99,-1.15,11.43,-2.18,-3.32,
0.743,-0.14,1.86,-1.51,11.43,-2.18,-3.32,
0.744,-0.14,1.86,-1.51,10.97,-2.62,-3.12,
0.744,-0.19,1.83,-1.94,10.97,-2.62,-3.12,
0.744,-0.19,1.83,-1.94,11.86,-2.48,-3.03,
0.745,-0.22,1.97,-2.50,11.86,-2.48,-3.03,
0.745,-0.22,1.97,-2.50,13.59,-2.05,-1.68,
0.746,-0.24,2.08,-3.20,13.59,-2.05,-1.68,
0.746,-0.24,2.08,-3.20,14.08,-1.94,-0.70,
0.746,-0.21,2.17,-3.97,14.08,-1.94,-0.70,
0.747,-0.21,2.17,-3.97,13.05,-1.99,-0.13,
0.747,-0.15,2.27,-4.71,13.05,-1.99,-0.13,
0.748,-0.15,2.27,-4.71,11.69,-1.83,0.27,
0.752,-0.15,2.27,-4.71,9.89,-1.62,0.42,
0.753,-0.07,2.31,-5.40,9.89,-1.62,0.42,
0.756,0.03,2.27,-5.99,9.89,-1.62,0.42,
0.756,0.03,2.27,-5.99,7.53,-1.21,1.15,
0.761,0.03,2.27,-5.99,4.07,-0.58,1.72,
0.762,0.14,2.11,-6.43,4.07,-0.58,1.72,
0.767,0.25,1.85,-6.70,4.07,-0.58,1.72,
0.767,0.25,1.85,-6.70,-0.35,0.51,2.64,
0.771,0.25,1.85,-6.70,-4.53,2.15,3.17,
0.771,0.32,1.47,-6.74,-4.53,2.15,3.17,
0.777,0.35,1.06,-6.52,-4.53,2.15,3.17,
0.777,0.35,1.06,-6.52,-8.23,5.01,2.31,
0.781,0.25,0.90,-5.96,-8.23,5.01,2.31,
0.781,0.25,0.90,-5.96,-11.24,8.88,-0.27,
0.786,0.02,0.99,-5.05,-11.24,8.88,-0.27,
0.787,0.02,0.99,-5.05,-12.44,12.32,4.61,
0.791,0.02,0.99,-5.05,-12.89,14.13,7.93,
0.791,-0.08,0.63,-4.10,-12.89,14.13,7.93,
0.795,-0.08,0.63,-4.10,-12.44,15.37,8.72,
0.795,-0.02,0.16,-3.25,-12.44,15.37,8.72,
0.8,0.07,-0.23,-2.40,-12.44,15.37,8.72,
0.801,0.07,-0.23,-2.40,-10.35,17.36,8.20,
0.805,0.07,-0.23,-2.40,-7.85,18.39,7.25,
0.805,0.14,-0.47,-1.50,-7.85,18.39,7.25,
0.809,0.23,-0.57,-0.64,-7.85,18.39,7.25,
0.81,0.23,-0.57,-0.64,-3.18,15.28,5.33,
0.815,0.37,-0.33,-0.04,-3.18,15.28,5.33,
0.816,0.37,-0.33,-0.04,1.79,11.64,1.52,
0.819,0.47,0.32,0.31,1.79,11.64,1.52,
0.819,0.47,0.32,0.31,4.21,9.67,-3.79,
0.824,0.28,1.23,0.56,4.21,9.67,-3.79,
0.824,0.28,1.23,0.56,7.81,7.23,-0.88,
0.829,0.08,1.71,0.50,7.81,7.23,-0.88,
0.83,0.08,1.71,0.50,10.54,5.59,0.81,
0.834,-0.01,2.00,0.18,10.54,5.59,0.81,
0.834,-0.01,2.00,0.18,10.17,5.06,0.71,
0.838,-0.14,2.20,-0.18,10.17,5.06,0.71,
0.839,-0.14,2.20,-0.18,9.82,4.79,0.73,
0.844,-0.32,2.25,-0.57,9.82,4.79,0.73,
0.844,-0.32,2.25,-0.57,9.34,3.99,0.11,
0.849,-0.54,2.28,-0.98,9.34,3.99,0.11,
0.849,-0.54,2.28,-0.98,9.23,3.22,-0.35,
0.853,-0.76,2.31,-1.39,9.23,3.22,-0.35,
0.853,-0.76,2.31,-1.39,8.79,2.52,-0.01,
0.858,-0.98,2.29,-1.77,8.79,2.52,-0.01,
0.858,-0.98,2.29,-1.77,8.39,2.18,0.19,
0.866,-1.17,2.24,-2.10,8.39,2.18,0.19,
0.867,-1.17,2.24,-2.10,7.66,2.10,0.46,
0.868,-1.34,2.18,-2.37,7.66,2.10,0.46,
0.868,-1.34,2.18,-2.37,6.81,2.12,0.98,
0.873,-1.34,2.18,-2.37,6.28,2.15,1.50,
0.874,-1.48,2.11,-2.60,6.28,2.15,1.50,
0.877,-1.59,2.06,-2.81,6.28,2.15,1.50,
0.878,-1.59,2.06,-2.81,5.70,1.98,1.79,
0.882,-1.68,2.05,-3.01,5.70,1.98,1.79,
0.884,-1.68,2.05,-3.01,5.19,1.38,2.01,
0.887,-1.76,2.07,-3.19,5.19,1.38,2.01,
0.888,-1.76,2.07,-3.19,5.50,0.89,2.01,
0.892,-1.76,2.07,-3.19,5.37,0.08,1.44,
0.893,-1.82,2.14,-3.40,5.37,0.08,1.44,
0.898,-1.86,2.30,-3.61,5.37,0.08,1.44,
0.899,-1.86,2.30,-3.61,5.27,-0.90,0.83,
0.901,-1.89,2.51,-3.81,5.27,-0.90,0.83,
0.902,-1.89,2.51,-3.81,5.17,-1.93,0.09,
0.907,-1.92,2.76,-4.00,5.17,-1.93,0.09,
0.907,-1.92,2.76,-4.00,4.88,-3.02,-0.62,
0.913,-1.92,2.76,-4.00,4.30,-4.15,-1.15,
0.914,-1.94,3.01,-4.17,4.30,-4.15,-1.15,
0.917,-1.94,3.01,-4.17,3.84,-5.20,-1.66,
0.917,-1.96,3.23,-4.32,3.84,-5.20,-1.66,
0.921,-1.96,3.23,-4.32,3.43,-6.29,-2.22,
0.922,-1.98,3.43,-4.45,3.43,-6.29,-2.22,
0.926,-1.98,3.43,-4.45,2.66,-7.02,-2.88,
0.927,-1.98,3.60,-4.57,2.66,-7.02,-2.88,
0.931,-1.98,3.60,-4.57,1.82,-7.87,-3.43,
0.932,-1.98,3.75,-4.67,1.82,-7.87,-3.43,
0.935,-1.98,3.75,-4.67,0.88,-8.74,-4.00,
0.936,-1.96,3.88,-4.74,0.88,-8.74,-4.00,
0.941,-1.96,3.88,-4.74,-0.24,-9.32,-4.67,
0.941,-1.92,4.01,-4.78,-0.24,-9.32,-4.67,
0.947,-1.86,4.13,-4.79,-0.24,-9.32,-4.67,
0.948,-1.86,4.13,-4.79,-1.47,-10.03,-5.04,
0.95,-1.76,4.22,-4.76,-1.47,-10.03,-5.04,
0.951,-1.76,4.22,-4.76,-2.74,-10.83,-5.34,
0.955,-1.64,4.27,-4.70,-2.74,-10.83,-5.34,
0.956,-1.64,4.27,-4.70,-4.03,-11.82,-5.30,
0.985,-1.46,4.23,-4.62,-4.03,-11.82,-5.30,
0.985,-1.46,4.23,-4.62,-5.19,-12.99,-4.55,
0.986,-1.46,4.23,-4.62,-6.33,-14.24,-3.33,
0.986,-1.20,4.05,-4.52,-6.33,-14.24,-3.33,
0.989,-0.86,3.70,-4.38,-6.33,-14.24,-3.33,
0.99,-0.86,3.70,-4.38,-8.03,-15.40,-2.27,
0.99,-0.44,3.14,-4.16,-8.03,-15.40,-2.27,
0.991,-0.44,3.14,-4.16,-10.09,-16.87,0.09,
0.991,0.08,2.28,-3.86,-10.09,-16.87,0.09,
0.992,0.08,2.28,-3.86,-12.16,-18.53,2.89,
0.992,0.08,2.28,-3.86,-13.68,-20.47,5.42,
0.994,0.68,1.18,-3.50,-13.68,-20.47,5.42,
0.995,0.68,1.18,-3.50,-14.82,-22.38,7.13,
0.996,1.34,-0.08,-3.13,-14.82,-22.38,7.13,
0.997,2.06,-1.38,-2.79,-14.82,-22.38,7.13,
0.997,2.06,-1.38,-2.79,-15.26,-23.79,8.07,
1.003,2.83,-2.63,-2.51,-15.26,-23.79,8.07,
1.005,2.83,-2.63,-2.51,-14.27,-24.69,8.73,
1.012,3.65,-3.74,-2.29,-14.27,-24.69,8.73,
1.014,3.65,-3.74,-2.29,-14.36,-23.26,7.67,
1.014,3.65,-3.74,-2.29,-15.45,-21.27,7.43,
1.015,4.51,-4.54,-2.03,-15.45,-21.27,7.43,
1.016,5.41,-5.15,-1.66,-15.45,-21.27,7.43,
1.017,5.41,-5.15,-1.66,-16.28,-20.20,8.51,
1.019,6.37,-5.65,-1.21,-16.28,-20.20,8.51,
1.019,6.37,-5.65,-1.21,-16.03,-20.40,10.07,
1.023,7.39,-6.03,-0.78,-16.03,-20.40,10.07,
1.024,7.39,-6.03,-0.78,-14.75,-21.70,11.80,
1.028,8.50,-6.32,-0.44,-14.75,-21.70,11.80,
1.029,8.50,-6.32,-0.44,-12.34,-23.84,14.23,
1.038,9.74,-6.58,-0.27,-12.34,-23.84,14.23,
1.039,11.12,-6.90,-0.34,-12.34,-23.84,14.23,
1.039,11.12,-6.90,-0.34,-8.63,-26.62,17.20,
1.04,11.12,-6.90,-0.34,-3.76,-29.72,20.41,
1.043,12.67,-7.29,-0.73,-3.76,-29.72,20.41,
1.044,12.67,-7.29,-0.73,1.41,-32.93,23.23,
1.05,14.38,-7.68,-1.46,1.41,-32.93,23.23,
1.051,14.38,-7.68,-1.46,5.82,-36.19,24.31,
1.056,16.18,-7.95,-2.52,5.82,-36.19,24.31,
1.057,16.18,-7.95,-2.52,9.33,-39.41,24.04,
1.059,18.00,-8.07,-3.81,9.33,-39.41,24.04,
1.06,18.00,-8.07,-3.81,11.45,-42.56,22.13,
1.062,19.71,-8.10,-5.22,11.45,-42.56,22.13,
1.063,19.71,-8.10,-5.22,11.66,-45.26,17.58,
1.071,19.71,-8.10,-5.22,10.42,-45.80,11.21,
1.073,19.71,-8.10,-5.22,7.87,-46.29,3.95,
1.074,21.19,-8.00,-6.63,7.87,-46.29,3.95,
1.074,22.29,-7.80,-7.94,7.87,-46.29,3.95,
1.077,22.99,-7.50,-9.07,7.87,-46.29,3.95,
1.078,22.99,-7.50,-9.07,5.18,-46.71,-3.25,
1.081,23.30,-7.04,-9.99,5.18,-46.71,-3.25,
1.082,23.30,-7.04,-9.99,2.40,-47.04,-10.48,
1.088,23.30,-7.04,-9.99,-0.24,-47.25,-16.61,
1.089,23.26,-6.39,-10.70,-0.24,-47.25,-16.61,
1.092,23.26,-6.39,-10.70,-3.21,-44.79,-21.82,
1.093,22.90,-5.60,-11.17,-3.21,-44.79,-21.82,
1.098,22.26,-4.76,-11.40,-3.21,-44.79,-21.82,
1.099,22.26,-4.76,-11.40,-6.57,-40.26,-26.10,
1.102,21.34,-3.91,-11.34,-6.57,-40.26,-26.10,
1.103,21.34,-3.91,-11.34,-10.61,-34.69,-30.12,
1.105,20.17,-3.04,-11.01,-10.61,-34.69,-30.12,
1.106,20.17,-3.04,-11.01,-15.26,-28.26,-34.20,
1.11,18.78,-2.14,-10.38,-15.26,-28.26,-34.20,
1.111,18.78,-2.14,-10.38,-19.22,-21.20,-37.44,
1.115,17.19,-1.28,-9.50,-19.22,-21.20,-37.44,
1.116,17.19,-1.28,-9.50,-23.03,-14.34,-38.67,
1.12,15.44,-0.48,-8.41,-23.03,-14.34,-38.67,
1.121,15.44,-0.48,-8.41,-26.43,-8.38,-38.11,
1.125,13.56,0.28,-7.17,-26.43,-8.38,-38.11,
1.126,13.56,0.28,-7.17,-27.39,-4.79,-37.62,
1.131,11.62,0.83,-5.88,-27.39,-4.79,-37.62,
1.133,11.62,0.83,-5.88,-31.53,0.92,-37.19,
1.135,9.67,1.38,-4.46,-31.53,0.92,-37.19,
1.135,9.67,1.38,-4.46,-31.72,5.17,-36.82,
1.139,7.76,1.59,-3.03,-31.72,5.17,-36.82,
1.14,7.76,1.59,-3.03,-29.93,7.03,-36.49,
1.145,5.74,1.45,-1.67,-29.93,7.03,-36.49,
1.148,5.74,1.45,-1.67,-24.95,8.19,-36.24,
1.151,3.46,1.29,-0.57,-24.95,8.19,-36.24,
1.154,3.46,1.29,-0.57,-17.73,6.50,-36.05,
1.155,1.12,0.92,0.08,-17.73,6.50,-36.05,
1.155,1.12,0.92,0.08,-10.25,3.45,-35.94,
1.159,1.12,0.92,0.08,-4.22,-0.37,-35.92,
1.16,-1.13,0.27,0.38,-4.22,-0.37,-35.92,
1.167,-3.25,-0.40,0.42,-4.22,-0.37,-35.92,
1.168,-3.25,-0.40,0.42,1.41,-2.99,-35.98,
1.169,-5.17,-0.97,0.26,1.41,-2.99,-35.98,
1.17,-5.17,-0.97,0.26,4.94,-4.82,-36.11,
1.174,-6.85,-1.30,-0.02,4.94,-4.82,-36.11,
1.175,-6.85,-1.30,-0.02,5.50,-5.71,-33.86,
1.184,-8.30,-1.36,-0.24,5.50,-5.71,-33.86,
1.186,-8.30,-1.36,-0.24,3.91,-6.83,-29.27,
1.187,-8.30,-1.36,-0.24,1.94,-8.43,-24.67,
1.188,-9.52,-1.18,-0.33,1.94,-8.43,-24.67,
1.19,-10.55,-0.92,-0.27,1.94,-8.43,-24.67,
1.191,-10.55,-0.92,-0.27,0.30,-10.54,-21.03,
1.194,-10.55,-0.92,-0.27,-0.77,-13.07,-17.68,
1.196,-11.45,-0.64,-0.10,-0.77,-13.07,-17.68,
1.198,-12.24,-0.38,0.13,-0.77,-13.07,-17.68,
1.199,-12.24,-0.38,0.13,-1.30,-15.80,-14.38,
1.225,-12.24,-0.38,0.13,-1.26,-18.57,-11.21,
1.226,-12.94,-0.17,0.38,-1.26,-18.57,-11.21,
1.226,-13.55,-0.05,0.61,-1.26,-18.57,-11.21,
1.227,-13.55,-0.05,0.61,-0.36,-21.28,-8.02,
1.228,-14.07,-0.05,0.79,-0.36,-21.28,-8.02,
1.228,-14.07,-0.05,0.79,1.42,-23.91,-4.30,
1.229,-14.49,-0.29,0.90,1.42,-23.91,-4.30,
1.229,-14.49,-0.29,0.90,4.07,-26.39,0.37,
1.23,-14.80,-0.83,0.90,4.07,-26.39,0.37,
1.23,-14.80,-0.83,0.90,7.18,-28.40,5.37,
1.231,-14.96,-1.66,0.78,7.18,-28.40,5.37,
1.231,-14.96,-1.66,0.78,10.49,-29.74,9.90,
1.232,-14.93,-2.64,0.51,10.49,-29.74,9.90,
1.232,-14.93,-2.64,0.51,14.08,-30.44,13.55,
1.237,-14.71,-3.53,0.08,14.08,-30.44,13.55,
1.238,-14.71,-3.53,0.08,17.81,-30.66,16.19,
1.242,-14.29,-4.20,-0.51,17.81,-30.66,16.19,
1.243,-14.29,-4.20,-0.51,20.95,-29.55,19.30,
1.247,-13.62,-4.58,-1.25,20.95,-29.55,19.30,
1.248,-13.62,-4.58,-1.25,23.01,-27.35,23.33,
1.251,-12.63,-4.62,-2.10,23.01,-27.35,23.33,
1.252,-12.63,-4.62,-2.10,23.74,-24.99,28.46,
1.257,-11.23,-4.32,-3.05,23.74,-24.99,28.46,
1.258,-11.23,-4.32,-3.05,22.80,-22.86,34.39,
1.262,-9.32,-3.65,-4.07,22.80,-22.86,34.39,
1.263,-9.32,-3.65,-4.07,20.44,-20.73,34.30,
1.266,-9.32,-3.65,-4.07,17.77,-18.18,34.03,
1.267,-6.84,-2.52,-5.08,17.77,-18.18,34.03,
1.271,-6.84,-2.52,-5.08,14.23,-15.26,33.87,
1.272,-3.78,-1.26,-6.00,14.23,-15.26,33.87,
1.276,-3.78,-1.26,-6.00,9.57,-12.88,33.82,
1.277,-0.37,-0.15,-6.68,9.57,-12.88,33.82,
1.281,-0.37,-0.15,-6.68,6.48,-13.28,33.84,
1.282,3.06,0.46,-7.01,6.48,-13.28,33.84,
1.285,6.10,0.68,-7.06,6.48,-13.28,33.84,
1.286,6.10,0.68,-7.06,5.81,-15.93,33.91,
1.29,8.52,0.84,-7.01,5.81,-15.93,33.91,
1.291,8.52,0.84,-7.01,5.75,-19.24,30.78,
1.295,10.39,0.98,-7.00,5.75,-19.24,30.78,
1.296,10.39,0.98,-7.00,5.90,-22.36,23.77,
1.3,11.80,1.15,-7.07,5.90,-22.36,23.77,
1.301,11.80,1.15,-7.07,5.32,-24.70,16.95,
1.304,12.85,1.42,-7.17,5.32,-24.70,16.95,
1.305,12.85,1.42,-7.17,4.26,-26.38,10.96,
1.309,13.59,1.77,-7.27,4.26,-26.38,10.96,
1.31,13.59,1.77,-7.27,2.69,-27.45,6.02,
1.315,14.07,2.11,-7.32,2.69,-27.45,6.02,
1.317,14.07,2.11,-7.32,0.90,-27.60,1.89,
1.319,14.30,2.37,-7.28,0.90,-27.60,1.89,
1.32,14.30,2.37,-7.28,-1.54,-26.97,-2.11,
1.324,14.31,2.58,-7.12,-1.54,-26.97,-2.11,
1.324,14.31,2.58,-7.12,-4.87,-25.62,-5.85,
1.331,14.31,2.58,-7.12,-8.80,-23.64,-9.74,
1.332,14.13,2.78,-6.78,-8.80,-23.64,-9.74,
1.334,13.75,3.01,-6.26,-8.80,-23.64,-9.74,
1.334,13.75,3.01,-6.26,-12.98,-21.27,-13.62,
1.339,13.75,3.01,-6.26,-16.69,-18.88,-17.75,
1.339,13.20,3.33,-5.56,-16.69,-18.88,-17.75,
1.343,12.49,3.76,-4.68,-16.69,-18.88,-17.75,
1.344,12.49,3.76,-4.68,-20.68,-16.24,-21.80,
1.348,12.49,3.76,-4.68,-27.51,-10.48,-29.63,
1.35,11.59,4.41,-3.60,-27.51,-10.48,-29.63,
1.353,10.44,5.39,-2.20,-27.51,-10.48,-29.63,
1.354,10.44,5.39,-2.20,-29.84,-5.01,-33.12,
1.358,9.04,6.19,-0.56,-29.84,-5.01,-33.12,
1.358,9.04,6.19,-0.56,-29.76,-0.82,-35.12,
1.363,7.41,6.72,1.17,-29.76,-0.82,-35.12,
1.364,7.41,6.72,1.17,-29.70,1.99,-38.44,
1.368,5.59,7.12,2.88,-29.70,1.99,-38.44,
1.369,5.59,7.12,2.88,-29.69,2.96,-39.40,
1.372,3.61,7.42,4.42,-29.69,2.96,-39.40,
1.374,3.61,7.42,4.42,-28.21,2.10,-38.97,
1.378,3.61,7.42,4.42,-23.31,-0.19,-38.54,
1.38,1.48,7.71,5.70,-23.31,-0.19,-38.54,
1.383,-0.80,7.98,6.61,-23.31,-0.19,-38.54,
1.385,-0.80,7.98,6.61,-17.88,-3.44,-38.14,
1.388,-0.80,7.98,6.61,-12.45,-7.54,-37.78,
1.389,-3.20,8.17,7.15,-12.45,-7.54,-37.78,
1.392,-3.20,8.17,7.15,-7.66,-12.29,-37.49,
1.394,-5.78,8.09,7.31,-7.66,-12.29,-37.49,
1.401,-5.78,8.09,7.31,-4.72,-16.81,-37.28,
1.403,-8.56,7.64,7.15,-4.72,-16.81,-37.28,
1.404,-8.56,7.64,7.15,-3.60,-20.29,-37.19,
1.405,-11.30,6.89,6.83,-3.60,-20.29,-37.19,
1.407,-13.59,6.29,6.54,-3.60,-20.29,-37.19,
1.408,-13.59,6.29,6.54,-3.72,-23.17,-37.21,
1.418,-15.39,5.92,6.32,-3.72,-23.17,-37.21,
1.42,-15.39,5.92,6.32,-5.16,-25.74,-32.27,
1.422,-15.39,5.92,6.32,-7.38,-28.81,-27.14,
1.423,-16.81,5.77,6.17,-7.38,-28.81,-27.14,
1.423,-17.96,5.67,6.09,-7.38,-28.81,-27.14,
1.424,-17.96,5.67,6.09,-8.87,-32.51,-21.86,
1.428,-18.91,5.48,6.03,-8.87,-32.51,-21.86,
1.431,-18.91,5.48,6.03,-9.27,-36.38,-16.39,
1.432,-18.91,5.48,6.03,-8.39,-39.75,-10.02,
1.433,-19.65,5.13,5.94,-8.39,-39.75,-10.02,
1.436,-20.18,4.46,5.78,-8.39,-39.75,-10.02,
1.438,-20.18,4.46,5.78,-6.21,-42.07,-2.20,
1.441,-20.18,4.46,5.78,-2.85,-43.22,5.67,
1.442,-20.50,3.34,5.53,-2.85,-43.22,5.67,
1.471,-20.55,1.80,5.18,-2.85,-43.22,5.67,
1.471,-20.55,1.80,5.18,1.97,-43.28,13.48,
1.472,-20.28,-0.06,4.71,1.97,-43.28,13.48,
1.472,-20.28,-0.06,4.71,8.89,-42.57,21.76,
1.474,-20.28,-0.06,4.71,17.21,-40.15,28.10,
1.475,-19.64,-2.05,4.07,17.21,-40.15,28.10,
1.475,-19.64,-2.05,4.07,25.63,-36.16,35.70,
1.476,-18.56,-3.71,3.16,25.63,-36.16,35.70,
1.477,-16.92,-4.90,1.90,25.63,-36.16,35.70,
1.477,-16.92,-4.90,1.90,32.72,-30.51,35.17,
1.479,-16.92,-4.90,1.90,35.72,-23.67,34.53,
1.48,-14.61,-5.58,0.27,35.72,-23.67,34.53,
1.48,-11.58,-5.39,-1.56,35.72,-23.67,34.53,
1.481,-11.58,-5.39,-1.56,32.98,-16.55,34.00,
1.481,-7.81,-4.19,-3.25,32.98,-16.55,34.00,
1.482,-7.81,-4.19,-3.25,26.81,-9.09,33.64,
1.484,-3.45,-2.39,-4.53,26.81,-9.09,33.64,
1.485,-3.45,-2.39,-4.53,20.83,-4.19,33.44,
1.489,0.97,-0.80,-5.34,20.83,-4.19,33.44,
1.49,0.97,-0.80,-5.34,18.93,-4.80,33.40,
1.495,4.90,-0.24,-5.90,18.93,-4.80,33.40,
1.496,4.90,-0.24,-5.90,18.97,-9.23,33.47,
1.499,4.90,-0.24,-5.90,18.03,-14.37,33.60,
1.5,8.06,-0.56,-6.45,18.03,-14.37,33.60,
1.504,8.06,-0.56,-6.45,15.42,-18.73,33.78,
1.505,10.45,-1.14,-7.11,15.42,-18.73,33.78,
1.51,12.23,-1.64,-7.87,15.42,-18.73,33.78,
1.511,12.23,-1.64,-7.87,12.17,-22.30,24.92,
1.521,12.23,-1.64,-7.87,9.21,-25.29,16.99,
1.522,13.55,-1.97,-8.64,9.21,-25.29,16.99,
1.523,14.52,-2.15,-9.34,9.21,-25.29,16.99,
1.523,14.52,-2.15,-9.34,6.37,-27.63,10.76,
1.524,15.19,-2.24,-9.89,6.37,-27.63,10.76,
1.524,15.19,-2.24,-9.89,3.46,-29.06,5.89,
1.529,15.19,-2.24,-9.89,0.03,-29.34,1.83,
1.53,15.63,-2.27,-10.27,0.03,-29.34,1.83,
1.533,15.88,-2.23,-10.44,0.03,-29.34,1.83,
1.534,15.88,-2.23,-10.44,-4.00,-28.52,-1.47,
1.538,15.96,-2.11,-10.37,-4.00,-28.52,-1.47,
1.539,15.96,-2.11,-10.37,-8.66,-26.48,-4.67,
1.542,15.89,-1.84,-10.03,-8.66,-26.48,-4.67,
1.543,15.89,-1.84,-10.03,-13.84,-23.26,-8.53,
1.548,15.64,-1.33,-9.38,-13.84,-23.26,-8.53,
1.549,15.64,-1.33,-9.38,-19.04,-19.09,-12.86,
1.552,15.17,-0.53,-8.39,-19.04,-19.09,-12.86,
1.553,15.17,-0.53,-8.39,-23.64,-14.12,-17.30,
1.557,15.17,-0.53,-8.39,-27.42,-8.67,-21.34,
1.558,14.49,0.53,-7.08,-27.42,-8.67,-21.34,
1.561,13.60,1.77,-5.48,-27.42,-8.67,-21.34,
1.562,13.60,1.77,-5.48,-30.34,-3.29,-25.13,
1.566,13.60,1.77,-5.48,-30.62,1.50,-29.60,
1.567,12.48,3.16,-3.66,-30.62,1.50,-29.60,
1.571,11.08,4.73,-1.69,-30.62,1.50,-29.60,
1.572,11.08,4.73,-1.69,-30.53,5.20,-32.77,
1.577,9.40,6.34,0.35,-30.53,5.20,-32.77,
1.577,9.40,6.34,0.35,-30.47,7.38,-35.95,
1.581,9.40,6.34,0.35,-30.48,7.70,-39.03,
1.582,7.47,7.98,2.37,-30.48,7.70,-39.03,
1.586,7.47,7.98,2.37,-26.29,4.94,-38.54,
1.587,5.19,9.48,4.23,-26.29,4.94,-38.54,
1.591,5.19,9.48,4.23,-20.30,-1.54,-38.05,
1.592,1.83,9.73,5.67,-20.30,-1.54,-38.05,
1.6,1.83,9.73,5.67,-14.93,-9.01,-37.71,
1.601,-2.72,8.70,6.50,-14.93,-9.01,-37.71,
1.602,-6.92,7.93,6.87,-14.93,-9.01,-37.71,
1.602,-6.92,7.93,6.87,-8.49,-13.01,-37.52,
1.608,-6.92,7.93,6.87,-1.89,-15.54,-37.45,
1.61,-10.01,7.39,7.00,-1.89,-15.54,-37.45,
1.611,-12.31,7.03,6.87,-1.89,-15.54,-37.45,
1.612,-12.31,7.03,6.87,2.73,-19.09,-33.74,
1.619,-12.31,7.03,6.87,3.39,-23.31,-29.76,
1.621,-14.13,7.01,6.51,3.39,-23.31,-29.76,
1.622,-15.60,7.27,6.07,3.39,-23.31,-29.76,
1.623,-15.60,7.27,6.07,1.25,-27.97,-25.04,
1.625,-15.60,7.27,6.07,-1.83,-32.37,-19.21,
1.627,-16.80,7.60,5.64,-1.83,-32.37,-19.21,
1.634,-17.73,7.85,5.25,-1.83,-32.37,-19.21,
1.636,-17.73,7.85,5.25,-4.25,-35.75,-12.08,
1.636,-17.73,7.85,5.25,-4.91,-37.93,-3.30,
1.637,-18.38,7.82,4.87,-4.91,-37.93,-3.30,
1.64,-18.38,7.82,4.87,-2.70,-39.04,7.53,
1.641,-18.76,7.25,4.42,-2.70,-39.04,7.53,
1.645,-18.86,5.92,3.81,-2.70,-39.04,7.53,
1.646,-18.86,5.92,3.81,1.99,-38.97,19.33,
1.65,-18.86,5.92,3.81,8.15,-37.55,26.49,
1.651,-18.58,3.98,2.99,8.15,-37.55,26.49,
1.655,-18.58,3.98,2.99,14.18,-34.69,33.31,
1.656,-17.82,2.08,1.94,14.18,-34.69,33.31,
1.66,-17.82,2.08,1.94,19.52,-29.42,36.92,
1.661,-16.43,0.43,0.65,19.52,-29.42,36.92,
1.666,-16.43,0.43,0.65,23.31,-21.76,36.37,
1.667,-14.24,-0.92,-0.79,23.31,-21.76,36.37,
1.67,-14.24,-0.92,-0.79,20.68,-13.89,35.92,
1.671,-11.13,-1.48,-2.28,20.68,-13.89,35.92,
1.674,-7.39,-0.97,-3.64,20.68,-13.89,35.92,
1.675,-7.39,-0.97,-3.64,15.53,-7.22,35.62,
1.679,-3.36,-0.23,-4.69,15.53,-7.22,35.62,
1.68,-3.36,-0.23,-4.69,10.29,-1.83,35.47,
1.684,0.77,-0.03,-5.23,10.29,-1.83,35.47,
1.684,0.77,-0.03,-5.23,4.08,0.45,35.44,
1.706,4.63,-0.16,-5.22,4.08,0.45,35.44,
1.707,4.63,-0.16,-5.22,0.56,0.01,35.53,
1.707,4.63,-0.16,-5.22,-1.58,-2.26,35.70,
1.708,7.97,-0.42,-4.87,-1.58,-2.26,35.70,
1.708,7.97,-0.42,-4.87,-2.58,-6.59,35.93,
1.708,10.78,-0.95,-4.45,-2.58,-6.59,35.93,
1.709,13.06,-1.68,-4.17,-2.58,-6.59,35.93,
1.709,13.06,-1.68,-4.17,-2.10,-12.68,31.48,
1.71,13.06,-1.68,-4.17,-0.60,-18.77,24.77,
1.71,14.82,-2.49,-4.13,-0.60,-18.77,24.77,
1.712,16.14,-3.23,-4.38,-0.60,-18.77,24.77,
1.714,16.14,-3.23,-4.38,0.13,-23.75,17.14,
1.718,17.07,-3.81,-4.79,0.13,-23.75,17.14,
1.719,17.07,-3.81,-4.79,-0.27,-27.18,10.26,
1.722,17.68,-4.23,-5.24,-0.27,-27.18,10.26,
1.723,17.68,-4.23,-5.24,-1.49,-28.95,4.95,
1.727,18.03,-4.55,-5.62,-1.49,-28.95,4.95,
1.728,18.03,-4.55,-5.62,-3.77,-29.13,0.17,
1.734,18.14,-4.70,-5.85,-3.77,-29.13,0.17,
1.734,18.14,-4.70,-5.85,-6.69,-27.68,-4.60,
1.736,18.03,-4.59,-5.90,-6.69,-27.68,-4.60,
1.737,18.03,-4.59,-5.90,-8.90,-24.94,-9.36,
1.741,17.67,-4.17,-5.78,-8.90,-24.94,-9.36,
1.742,17.67,-4.17,-5.78,-11.49,-21.49,-14.42,
1.748,17.08,-3.33,-5.45,-11.49,-21.49,-14.42,
1.749,17.08,-3.33,-5.45,-14.49,-17.38,-19.90,
1.751,16.29,-1.94,-4.86,-14.49,-17.38,-19.90,
1.752,16.29,-1.94,-4.86,-17.36,-12.86,-26.05,
1.756,15.34,0.02,-3.99,-17.36,-12.86,-26.05,
1.757,15.34,0.02,-3.99,-19.92,-8.60,-30.20,
1.762,14.26,2.32,-2.84,-19.92,-8.60,-30.20,
1.763,14.26,2.32,-2.84,-21.64,-4.84,-33.58,
1.766,12.84,4.63,-1.45,-21.64,-4.84,-33.58,
1.767,12.84,4.63,-1.45,-21.11,-2.35,-36.61,
1.771,9.85,5.07,-0.10,-21.11,-2.35,-36.61,
1.772,9.85,5.07,-0.10,-21.97,-0.98,-37.04,
1.776,4.77,4.50,1.13,-21.97,-0.98,-37.04,
1.776,4.77,4.50,1.13,-25.57,0.25,-36.72,
1.782,4.77,4.50,1.13,-20.29,-0.90,-36.47,
1.783,-0.00,5.11,2.50,-20.29,-0.90,-36.47,
1.785,-0.00,5.11,2.50,-7.86,-2.23,-36.29,
1.786,-3.54,5.23,3.62,-7.86,-2.23,-36.29,
1.79,-3.54,5.23,3.62,2.39,-3.29,-36.19,
1.79,-6.30,5.07,3.98,2.39,-3.29,-36.19,
1.798,-8.63,4.93,3.68,2.39,-3.29,-36.19,
1.798,-8.63,4.93,3.68,6.89,-5.40,-32.90,
1.8,-10.53,4.97,3.19,6.89,-5.40,-32.90,
1.801,-10.53,4.97,3.19,6.03,-8.35,-29.38,
1.805,-10.53,4.97,3.19,2.64,-11.48,-26.79,
1.805,-12.05,5.21,2.78,2.64,-11.48,-26.79,
1.809,-12.05,5.21,2.78,-0.58,-14.46,-23.08,
1.81,-13.33,5.56,2.55,-0.58,-14.46,-23.08,
1.815,-13.33,5.56,2.55,-3.01,-17.27,-17.73,
1.816,-14.43,5.76,2.45,-3.01,-17.27,-17.73,
1.819,-14.43,5.76,2.45,-4.50,-19.89,-12.01,
1.821,-15.31,5.64,2.46,-4.50,-19.89,-12.01,
1.825,-15.91,5.23,2.52,-4.50,-19.89,-12.01,
1.826,-15.91,5.23,2.52,-5.35,-21.78,-6.08,
1.833,-16.24,4.42,2.60,-5.35,-21.78,-6.08,
1.834,-16.24,4.42,2.60,-5.30,-22.85,0.86,
1.837,-16.32,2.93,2.68,-5.30,-22.85,0.86,
1.839,-16.32,2.93,2.68,-4.01,-23.13,6.34,
1.84,-16.32,2.93,2.68,-1.03,-23.28,10.96,
1.841,-16.20,0.91,2.65,-1.03,-23.28,10.96,
1.844,-16.20,0.91,2.65,3.95,-23.33,14.46,
1.845,-15.91,-1.50,2.42,3.95,-23.33,14.46,
1.849,-15.91,-1.50,2.42,10.62,-22.08,16.04,
1.851,-15.50,-4.15,1.94,10.62,-22.08,16.04,
1.854,-14.96,-6.75,1.23,10.62,-22.08,16.04,
1.855,-14.96,-6.75,1.23,19.09,-19.39,14.75,
1.859,-14.96,-6.75,1.23,40.95,-18.89,37.16,
1.86,-13.67,-6.76,0.03,40.95,-18.89,37.16,
1.864,-10.62,-4.41,-2.12,40.95,-18.89,37.16,
1.865,-10.62,-4.41,-2.12,25.24,-14.77,36.63,
1.869,-10.62,-4.41,-2.12,24.54,-5.82,36.25,
1.87,-7.26,-3.53,-4.26,24.54,-5.82,36.25,
1.874,-3.03,-1.64,-5.89,24.54,-5.82,36.25,
1.874,-3.03,-1.64,-5.89,15.68,3.01,36.06,
1.879,-3.03,-1.64,-5.89,5.98,4.26,36.05,
1.879,1.35,-0.32,-6.30,5.98,4.26,36.05,
1.882,1.35,-0.32,-6.30,1.87,0.40,36.16,
1.883,5.46,0.00,-5.80,1.87,0.40,36.16,
1.889,5.46,0.00,-5.80,3.09,-6.22,36.35,
1.889,9.04,-0.74,-5.21,3.09,-6.22,36.35,
1.892,11.84,-2.02,-5.10,3.09,-6.22,36.35,
1.893,11.84,-2.02,-5.10,5.60,-13.43,36.58,
1.898,13.76,-3.16,-5.50,5.60,-13.43,36.58,
1.899,13.76,-3.16,-5.50,5.98,-19.53,25.61,
1.904,14.91,-3.90,-6.16,5.98,-19.53,25.61,
1.905,14.91,-3.90,-6.16,4.47,-23.61,14.02,
1.906,15.48,-4.41,-6.87,4.47,-23.61,14.02,
1.907,15.48,-4.41,-6.87,2.45,-25.72,5.61,
1.911,15.63,-4.82,-7.49,2.45,-25.72,5.61,
1.912,15.63,-4.82,-7.49,0.64,-25.80,-0.99,
1.917,15.44,-4.97,-7.96,0.64,-25.80,-0.99,
1.918,15.44,-4.97,-7.96,-1.52,-24.03,-6.40,
1.921,14.98,-4.78,-8.23,-1.52,-24.03,-6.40,
1.922,14.98,-4.78,-8.23,-2.97,-21.27,-10.83,
1.926,14.98,-4.78,-8.23,-4.62,-17.80,-14.53,
1.927,14.30,-4.28,-8.29,-4.62,-17.80,-14.53,
1.956,13.45,-3.47,-8.16,-4.62,-17.80,-14.53,
1.958,13.45,-3.47,-8.16,-7.13,-14.13,-17.28,
1.959,13.45,-3.47,-8.16,-10.64,-10.58,-18.26,
1.96,12.50,-2.38,-7.81,-10.64,-10.58,-18.26,
1.962,12.50,-2.38,-7.81,-15.12,-7.18,-19.07,
1.963,11.52,-1.21,-7.21,-15.12,-7.18,-19.07,
1.965,10.52,0.01,-6.36,-15.12,-7.18,-19.07,
1.966,10.52,0.01,-6.36,-19.75,-3.78,-20.06,
1.967,9.50,1.26,-5.25,-19.75,-3.78,-20.06,
1.967,9.50,1.26,-5.25,-23.98,-0.64,-21.41,
1.968,8.45,2.48,-3.90,-23.98,-0.64,-21.41,
1.97,8.45,2.48,-3.90,-26.66,1.91,-21.93,
1.971,7.34,3.62,-2.40,-26.66,1.91,-21.93,
1.971,7.34,3.62,-2.40,-27.97,3.71,-23.48,
1.972,6.12,4.73,-0.84,-27.97,3.71,-23.48,
1.973,6.12,4.73,-0.84,-27.33,4.64,-24.10,
1.974,4.64,5.50,0.65,-27.33,4.64,-24.10,
1.975,4.64,5.50,0.65,-24.89,4.15,-24.96,
1.976,4.64,5.50,0.65,-22.50,1.75,-32.61,
1.976,2.34,5.16,1.95,-22.50,1.75,-32.61,
1.985,2.34,5.16,1.95,-20.21,-1.26,-37.41,
1.986,-0.71,4.25,2.97,-20.21,-1.26,-37.41,
1.987,-0.71,4.25,2.97,-13.59,-3.20,-37.25,
1.988,-3.52,4.07,3.70,-13.59,-3.20,-37.25,
1.993,-3.52,4.07,3.70,-6.22,-4.44,-33.37,
1.994,-5.74,4.24,4.08,-6.22,-4.44,-33.37,
1.995,-7.61,4.20,4.19,-6.22,-4.44,-33.37,
1.995,-7.61,4.20,4.19,-2.02,-5.94,-27.97,
2.001,-7.61,4.20,4.19,-0.33,-8.75,-24.09,
2.002,-9.28,4.04,4.16,-0.33,-8.75,-24.09,
2.004,-9.28,4.04,4.16,0.42,-11.99,-20.51,
2.005,-10.71,3.91,4.08,0.42,-11.99,-20.51,
2.01,-11.87,3.88,3.98,0.42,-11.99,-20.51,
2.011,-11.87,3.88,3.98,0.73,-14.73,-16.43,
2.014,-12.76,3.86,3.89,0.73,-14.73,-16.43,
2.015,-12.76,3.86,3.89,1.10,-17.24,-12.39,
2.018,-13.38,3.76,3.76,1.10,-17.24,-12.39,
2.019,-13.38,3.76,3.76,1.05,-19.26,-7.90,
2.027,-13.78,3.47,3.59,1.05,-19.26,-7.90,
2.028,-13.78,3.47,3.59,1.09,-20.82,-3.56,
2.028,-13.99,2.91,3.35,1.09,-20.82,-3.56,
2.029,-13.99,2.91,3.35,1.51,-21.96,0.44,
2.033,-14.06,2.03,3.02,1.51,-21.96,0.44,
2.034,-14.06,2.03,3.02,2.57,-22.43,3.97,
2.037,-14.06,2.03,3.02,4.32,-22.15,7.01,
2.038,-14.02,0.81,2.62,4.32,-22.15,7.01,
2.042,-14.02,0.81,2.62,6.49,-21.36,9.47,
2.043,-13.88,-0.69,2.18,6.49,-21.36,9.47,
2.05,-13.88,-0.69,2.18,8.89,-20.04,11.80,
2.051,-13.66,-2.39,1.71,8.89,-20.04,11.80,
2.053,-13.34,-4.24,1.22,8.89,-20.04,11.80,
2.054,-13.34,-4.24,1.22,11.61,-18.32,13.92,
2.057,-13.34,-4.24,1.22,14.46,-16.50,14.61,
2.058,-12.95,-6.14,0.67,14.46,-16.50,14.61,
2.067,-12.53,-7.75,0.04,14.46,-16.50,14.61,
2.068,-12.53,-7.75,0.04,20.46,-15.15,15.03,
2.069,-10.85,-6.16,-1.07,20.46,-15.15,15.03,
2.069,-10.85,-6.16,-1.07,23.16,-8.85,36.45,
2.072,-10.85,-6.16,-1.07,2.69,1.97,36.03,
2.072,-7.43,-5.13,-2.47,2.69,1.97,36.03,
2.076,-5.02,-4.79,-3.13,2.69,1.97,36.03,
2.077,-5.02,-4.79,-3.13,5.44,4.78,31.29,
2.081,-5.02,-4.79,-3.13,9.32,0.67,35.53,
2.082,-1.77,-2.31,-3.63,9.32,0.67,35.53,
2.086,1.56,-1.81,-4.02,9.32,0.67,35.53,
2.087,1.56,-1.81,-4.02,12.00,-4.92,35.46,
2.091,4.49,-1.81,-4.35,12.00,-4.92,35.46,
2.091,4.49,-1.81,-4.35,13.72,-8.16,33.23,
2.096,7.00,-1.85,-4.78,13.72,-8.16,33.23,
2.097,7.00,-1.85,-4.78,11.28,-9.98,28.89,
2.101,9.08,-1.79,-5.22,11.28,-9.98,28.89,
2.101,9.08,-1.79,-5.22,8.09,-11.38,22.38,
2.105,10.77,-1.57,-5.61,8.09,-11.38,22.38,
2.106,10.77,-1.57,-5.61,7.26,-13.28,15.91,
2.11,10.77,-1.57,-5.61,7.61,-15.37,11.35,
2.111,12.05,-1.33,-6.03,7.61,-15.37,11.35,
2.115,12.05,-1.33,-6.03,7.26,-16.73,7.63,
2.116,12.97,-1.21,-6.49,7.26,-16.73,7.63,
2.12,13.56,-1.21,-6.94,7.26,-16.73,7.63,
2.121,13.56,-1.21,-6.94,6.53,-17.15,3.94,
2.125,13.85,-1.24,-7.36,6.53,-17.15,3.94,
2.125,13.85,-1.24,-7.36,4.46,-17.08,0.24,
2.13,13.85,-1.24,-7.36,2.16,-16.60,-3.34,
2.131,13.85,-1.22,-7.67,2.16,-16.60,-3.34,
2.134,13.60,-1.16,-7.84,2.16,-16.60,-3.34,
2.135,13.60,-1.16,-7.84,-0.60,-15.14,-7.34,
2.14,13.60,-1.16,-7.84,-3.76,-13.02,-10.63,
2.141,13.12,-0.95,-7.83,-3.76,-13.02,-10.63,
2.145,12.49,-0.53,-7.61,-3.76,-13.02,-10.63,
2.149,12.49,-0.53,-7.61,-7.43,-10.21,-12.66,
2.15,12.49,-0.53,-7.61,-11.80,-6.93,-14.05,
2.152,11.76,0.06,-7.16,-11.80,-6.93,-14.05,
2.154,10.97,0.74,-6.45,-11.80,-6.93,-14.05,
2.155,10.97,0.74,-6.45,-16.72,-3.47,-15.48,
2.159,10.13,1.47,-5.50,-16.72,-3.47,-15.48,
2.161,10.13,1.47,-5.50,-21.45,-0.47,-17.45,
2.183,10.13,1.47,-5.50,-25.07,1.83,-19.39,
2.185,9.23,2.22,-4.31,-25.07,1.83,-19.39,
2.186,8.26,2.94,-2.93,-25.07,1.83,-19.39,
2.186,7.16,3.53,-1.45,-25.07,1.83,-19.39,
2.211,7.16,3.53,-1.45,-27.31,3.24,-21.57,
2.212,7.16,3.53,-1.45,-27.05,3.76,-21.64,
2.213,5.93,3.82,0.02,-27.05,3.76,-21.64,
2.213,5.93,3.82,0.02,-24.75,3.62,-23.03,
2.214,4.48,3.93,1.36,-24.75,3.62,-23.03,
2.215,4.48,3.93,1.36,-21.19,2.74,-24.44,
2.215,4.48,3.93,1.36,-17.47,0.79,-29.25,
2.216,2.38,3.19,2.49,-17.47,0.79,-29.25,
2.216,-0.54,1.48,3.33,-17.47,0.79,-29.25,
2.217,-0.54,1.48,3.33,-13.91,-1.93,-37.26,
2.217,-3.34,0.35,3.81,-13.91,-1.93,-37.26,
2.218,-3.34,0.35,3.81,-8.21,-2.92,-37.80,
2.218,-5.48,-0.06,4.01,-8.21,-2.92,-37.80,
2.219,-5.48,-0.06,4.01,-1.68,-3.38,-33.00,
2.219,-7.23,-0.21,4.08,-1.68,-3.38,-33.00,
2.219,-7.23,-0.21,4.08,3.08,-4.43,-27.80,
2.22,-7.23,-0.21,4.08,4.92,-6.28,-24.91,
2.221,-8.72,-0.12,4.12,4.92,-6.28,-24.91,
2.221,-8.72,-0.12,4.12,4.72,-8.70,-23.37,
2.222,-9.96,0.31,4.13,4.72,-8.70,-23.37,
2.222,-9.96,0.31,4.13,3.91,-11.36,-20.23,
2.223,-10.97,1.05,4.13,3.91,-11.36,-20.23,
2.228,-11.74,1.77,4.07,3.91,-11.36,-20.23,
2.232,-11.74,1.77,4.07,3.52,-14.05,-14.57,
2.233,-12.35,2.09,3.92,3.52,-14.05,-14.57,
2.234,-12.35,2.09,3.92,3.17,-16.41,-9.02,
2.237,-12.84,1.92,3.70,3.17,-16.41,-9.02,
2.238,-12.84,1.92,3.70,3.01,-18.22,-4.83,
2.242,-13.23,1.39,3.41,3.01,-18.22,-4.83,
2.242,-13.23,1.39,3.41,3.57,-19.49,-1.26,
2.247,-13.49,0.56,3.04,3.57,-19.49,-1.26,
2.248,-13.49,0.56,3.04,4.70,-20.19,2.01,
2.251,-13.49,0.56,3.04,6.28,-20.28,4.10,
2.252,-13.63,-0.52,2.63,6.28,-20.28,4.10,
2.256,-13.63,-0.52,2.63,8.00,-19.79,5.01,
2.257,-13.67,-1.72,2.19,8.00,-19.79,5.01,
2.261,-13.62,-2.91,1.76,8.00,-19.79,5.01,
2.261,-13.62,-2.91,1.76,9.84,-18.77,5.35,
2.266,-13.51,-4.00,1.33,9.84,-18.77,5.35,
2.267,-13.51,-4.00,1.33,11.66,-17.56,4.88,
2.27,-13.51,-4.00,1.33,13.14,-16.58,2.71,
2.271,-13.35,-4.86,0.89,13.14,-16.58,2.71,
2.275,-13.35,-4.86,0.89,22.25,-15.83,14.70,
2.276,-13.04,-4.45,0.34,22.25,-15.83,14.70,
2.281,-13.04,-4.45,0.34,15.30,-13.99,25.94,
2.282,-11.36,-0.06,-0.77,15.30,-13.99,25.94,
2.285,-11.36,-0.06,-0.77,2.13,-3.33,35.44,
2.286,-9.79,0.14,-1.93,2.13,-3.33,35.44,
2.29,-7.45,-1.00,-2.40,2.13,-3.33,35.44,
2.291,-7.45,-1.00,-2.40,-1.54,5.65,35.23,
2.295,-4.09,-0.56,-2.71,-1.54,5.65,35.23,
2.295,-4.09,-0.56,-2.71,5.03,2.85,35.10,
2.3,-0.32,-0.57,-3.23,5.03,2.85,35.10,
2.3,-0.32,-0.57,-3.23,11.15,-4.17,35.02,
2.304,-0.32,-0.57,-3.23,11.07,-10.71,34.97,
2.305,3.46,-1.51,-3.78,11.07,-10.71,34.97,
2.309,3.46,-1.51,-3.78,8.72,-13.32,34.27,
2.31,6.77,-1.99,-4.27,8.72,-13.32,34.27,
2.314,6.77,-1.99,-4.27,6.24,-13.27,24.45,
2.316,9.43,-1.72,-4.66,6.24,-13.27,24.45,
2.319,9.43,-1.72,-4.66,4.45,-13.75,17.15,
2.32,11.47,-1.06,-4.92,4.45,-13.75,17.15,
2.324,11.47,-1.06,-4.92,4.00,-14.92,11.73,
2.326,12.97,-0.41,-5.08,4.00,-14.92,11.73,
2.329,12.97,-0.41,-5.08,3.98,-16.06,7.78,
2.33,14.02,0.09,-5.21,3.98,-16.06,7.78,
2.334,14.02,0.09,-5.21,3.62,-16.50,4.85,
2.334,14.68,0.38,-5.34,3.62,-16.50,4.85,
2.338,14.68,0.38,-5.34,2.13,-16.06,2.41,
2.339,15.04,0.46,-5.46,2.13,-16.06,2.41,
2.343,15.15,0.38,-5.54,2.13,-16.06,2.41,
2.344,15.15,0.38,-5.54,0.33,-15.40,-0.26,
2.348,15.05,0.27,-5.56,0.33,-15.40,-0.26,
2.349,15.05,0.27,-5.56,-1.99,-14.42,-3.96,
2.355,15.05,0.27,-5.56,-5.09,-13.12,-7.77,
2.356,14.76,0.29,-5.48,-5.09,-13.12,-7.77,
2.358,14.76,0.29,-5.48,-8.82,-11.02,-11.83,
2.358,14.31,0.58,-5.25,-8.82,-11.02,-11.83,
2.367,14.31,0.58,-5.25,-12.13,-8.33,-14.25,
2.368,13.75,1.27,-4.82,-12.13,-8.33,-14.25,
2.376,13.75,1.27,-4.82,-15.46,-5.32,-15.92,
2.378,13.13,2.17,-4.13,-15.46,-5.32,-15.92,
2.379,12.44,3.16,-3.19,-15.46,-5.32,-15.92,
2.379,11.66,4.24,-1.99,-15.46,-5.32,-15.92,
2.38,11.66,4.24,-1.99,-19.00,-2.37,-17.95,
2.381,11.66,4.24,-1.99,-22.61,0.20,-20.18,
2.383,10.74,5.38,-0.56,-22.61,0.20,-20.18,
2.385,10.74,5.38,-0.56,-25.37,2.22,-21.98,
2.388,9.64,6.50,1.01,-25.37,2.22,-21.98,
2.39,9.64,6.50,1.01,-25.72,3.61,-23.81,
2.392,8.31,7.58,2.60,-25.72,3.61,-23.81,
2.393,8.31,7.58,2.60,-23.41,3.51,-27.42,
2.397,5.86,7.56,4.05,-23.41,3.51,-27.42,
2.398,5.86,7.56,4.05,-18.83,-0.12,-38.43,
2.402,1.44,5.76,4.98,-18.83,-0.12,-38.43,
2.403,1.44,5.76,4.98,-13.54,-5.82,-38.11,
2.407,-2.49,4.91,5.34,-13.54,-5.82,-38.11,
2.408,-2.49,4.91,5.34,-7.99,-5.87,-37.89,
2.411,-2.49,4.91,5.34,0.69,-5.12,-34.04,
2.412,-5.18,4.28,5.45,0.69,-5.12,-34.04,
2.432,-7.26,3.32,5.30,0.69,-5.12,-34.04,
2.433,-7.26,3.32,5.30,7.05,-5.53,-27.13,
2.434,-8.95,2.43,5.00,7.05,-5.53,-27.13,
2.434,-8.95,2.43,5.00,8.94,-7.42,-23.61,
2.435,-10.31,1.97,4.70,8.94,-7.42,-23.61,
2.435,-10.31,1.97,4.70,7.53,-9.75,-22.08,
2.436,-11.33,2.09,4.45,7.53,-9.75,-22.08,
2.436,-11.33,2.09,4.45,5.35,-11.85,-21.26,
2.437,-12.06,2.59,4.23,5.35,-11.85,-21.26,
2.437,-12.06,2.59,4.23,4.05,-14.08,-15.57,
2.443,-12.58,2.90,3.98,4.05,-14.08,-15.57,
2.444,-12.58,2.90,3.98,3.46,-15.94,-8.09,
2.445,-12.58,2.90,3.98,3.58,-17.38,-1.77,
2.446,-12.92,2.72,3.71,3.58,-17.38,-1.77,
2.45,-12.92,2.72,3.71,5.15,-18.59,2.99,
2.451,-13.12,2.01,3.40,5.15,-18.59,2.99,
2.455,-13.22,0.85,2.97,5.15,-18.59,2.99,
2.456,-13.22,0.85,2.97,7.63,-19.57,5.80,
2.46,-13.22,-0.56,2.41,7.63,-19.57,5.80,
2.46,-13.22,-0.56,2.41,10.30,-19.94,7.60,
2.465,-13.13,-2.08,1.74,10.30,-19.94,7.60,
2.466,-13.13,-2.08,1.74,13.00,-19.66,8.89,
2.471,-12.97,-3.61,1.00,13.00,-19.66,8.89,
2.472,-12.97,-3.61,1.00,15.53,-18.79,9.13,
2.474,-12.75,-4.98,0.20,15.53,-18.79,9.13,
2.476,-12.75,-4.98,0.20,17.74,-17.60,8.06,
2.483,-12.51,-5.92,-0.66,17.74,-17.60,8.06,
2.485,-12.51,-5.92,-0.66,19.67,-16.74,4.67,
2.489,-12.51,-5.92,-0.66,27.39,-16.67,4.78,
2.491,-12.51,-5.92,-0.66,22.85,-15.67,28.27,
2.494,-12.30,-5.85,-1.63,22.85,-15.67,28.27,
2.495,-11.12,-1.79,-3.04,22.85,-15.67,28.27,
2.496,-11.12,-1.79,-3.04,3.61,-5.71,35.58,
2.497,-9.54,-0.21,-4.59,3.61,-5.71,35.58,
2.5,-9.54,-0.21,-4.59,-3.23,4.00,35.32,
2.501,-7.77,-1.37,-5.29,-3.23,4.00,35.32,
2.506,-7.77,-1.37,-5.29,-3.82,5.65,31.86,
2.506,-4.99,0.31,-5.53,-3.82,5.65,31.86,
2.511,-1.71,1.65,-5.56,-3.82,5.65,31.86,
2.511,-1.71,1.65,-5.56,-3.37,3.01,35.18,
2.515,-1.71,1.65,-5.56,-2.10,-2.50,35.22,
2.516,1.56,1.35,-5.25,-2.10,-2.50,35.22,
2.519,1.56,1.35,-5.25,-2.36,-6.08,28.72,
2.519,4.37,0.77,-4.80,-2.36,-6.08,28.72,
2.523,4.37,0.77,-4.80,-3.14,-6.71,18.98,
2.523,6.56,0.46,-4.31,-3.14,-6.71,18.98,
2.531,8.15,0.60,-3.82,-3.14,-6.71,18.98,
2.532,8.15,0.60,-3.82,-3.82,-7.06,12.26,
2.533,9.26,0.93,-3.39,-3.82,-7.06,12.26,
2.533,9.26,0.93,-3.39,-4.56,-7.69,8.74,
2.538,9.26,0.93,-3.39,-4.78,-8.13,6.76,
2.539,9.99,1.15,-3.03,-4.78,-8.13,6.76,
2.544,10.44,1.14,-2.75,-4.78,-8.13,6.76,
2.544,10.44,1.14,-2.75,-4.43,-8.12,5.04,
2.548,10.65,0.93,-2.54,-4.43,-8.12,5.04,
2.549,10.65,0.93,-2.54,-4.49,-7.65,2.22,
2.553,10.65,0.72,-2.36,-4.49,-7.65,2.22,
2.554,10.65,0.72,-2.36,-5.22,-6.80,-1.21,
2.558,10.47,0.61,-2.15,-5.22,-6.80,-1.21,
2.559,10.47,0.61,-2.15,-6.72,-5.58,-4.62,
2.562,10.12,0.65,-1.87,-6.72,-5.58,-4.62,
2.563,10.12,0.65,-1.87,-8.85,-3.98,-8.00,
2.567,9.64,0.94,-1.45,-8.85,-3.98,-8.00,
2.567,9.64,0.94,-1.45,-11.09,-2.23,-11.36,
2.571,9.03,1.57,-0.88,-11.09,-2.23,-11.36,
2.572,9.03,1.57,-0.88,-13.21,-0.42,-14.46,
2.577,8.30,2.46,-0.14,-13.21,-0.42,-14.46,
2.577,8.30,2.46,-0.14,-14.74,1.11,-15.38,
2.584,8.30,2.46,-0.14,-16.09,2.31,-16.45,
2.586,7.51,3.38,0.75,-16.09,2.31,-16.45,
2.587,6.63,4.33,1.75,-16.09,2.31,-16.45,
2.587,6.63,4.33,1.75,-17.21,3.12,-17.74,
2.595,5.66,5.30,2.84,-17.21,3.12,-17.74,
2.596,5.66,5.30,2.84,-17.19,3.42,-18.40,
2.596,4.59,6.22,3.91,-17.19,3.42,-18.40,
2.597,4.59,6.22,3.91,-15.72,3.01,-18.56,
2.602,4.59,6.22,3.91,-12.04,1.07,-18.14,
2.603,3.40,6.94,4.88,-12.04,1.07,-18.14,
2.606,1.57,6.54,5.55,-12.04,1.07,-18.14,
2.606,1.57,6.54,5.55,-6.18,-3.54,-23.52,
2.61,-1.16,5.18,5.68,-6.18,-3.54,-23.52,
2.611,-1.16,5.18,5.68,-1.40,-7.88,-30.84,
2.618,-3.79,4.17,5.41,-1.40,-7.88,-30.84,
2.618,-3.79,4.17,5.41,-0.07,-7.93,-26.44,
2.621,-5.53,3.39,5.16,-0.07,-7.93,-26.44,
2.621,-5.53,3.39,5.16,3.12,-7.38,-19.07,
2.625,-5.53,3.39,5.16,6.80,-7.26,-12.07,
2.625,-6.54,2.62,4.89,6.80,-7.26,-12.07,
2.63,-7.15,1.71,4.57,6.80,-7.26,-12.07,
2.633,-7.15,1.71,4.57,9.33,-7.80,-6.43,
2.635,-7.15,1.71,4.57,10.29,-8.46,-3.03,
2.635,-7.53,0.77,4.21,10.29,-8.46,-3.03,
2.641,-7.76,-0.12,3.83,10.29,-8.46,-3.03,
2.641,-7.76,-0.12,3.83,10.58,-8.98,-0.07,
2.644,-7.85,-1.06,3.42,10.58,-8.98,-0.07,
2.644,-7.85,-1.06,3.42,10.74,-9.39,2.07,
2.649,-7.85,-2.03,2.95,10.74,-9.39,2.07,
2.65,-7.85,-2.03,2.95,11.35,-9.81,3.46,
2.654,-7.85,-2.03,2.95,12.53,-10.21,4.11,
2.655,-7.80,-3.01,2.38,12.53,-10.21,4.11,
2.686,-7.73,-3.92,1.71,12.53,-10.21,4.11,
2.687,-7.73,-3.92,1.71,13.97,-10.53,4.07,
2.688,-7.65,-4.68,0.92,13.97,-10.53,4.07,
2.689,-7.65,-4.68,0.92,15.12,-10.88,3.47,
2.69,-7.56,-5.20,0.03,15.12,-10.88,3.47,
2.69,-7.56,-5.20,0.03,15.98,-11.12,2.59,
2.691,-7.56,-5.20,0.03,16.59,-11.14,1.01,
2.693,-7.45,-5.45,-0.93,16.59,-11.14,1.01,
2.694,-7.45,-5.45,-0.93,16.88,-10.98,-0.84,
2.696,-7.37,-5.30,-1.93,16.88,-10.98,-0.84,
2.696,-7.37,-5.30,-1.93,21.96,-11.52,0.12,
2.697,-7.25,-4.54,-2.96,21.96,-11.52,0.12,
2.698,-6.71,-2.17,-4.18,21.96,-11.52,0.12,
2.698,-6.71,-2.17,-4.18,17.55,-10.60,7.09,
2.699,-6.71,-2.17,-4.18,5.09,-6.48,12.11,
2.7,-5.97,-0.56,-5.30,5.09,-6.48,12.11,
2.7,-5.97,-0.56,-5.30,-3.62,0.13,16.73,
2.7,-5.28,-0.28,-5.93,-3.62,0.13,16.73,
2.704,-5.28,-0.28,-5.93,-8.42,5.14,34.92,
2.705,-4.19,0.44,-6.06,-8.42,5.14,34.92,
2.709,-2.59,0.41,-5.83,-8.42,5.14,34.92,
2.709,-2.59,0.41,-5.83,-8.23,5.48,31.56,
2.723,-2.59,0.41,-5.83,-5.96,3.12,17.87,
2.724,-1.03,-0.13,-5.42,-5.96,3.12,17.87,
2.724,0.46,-0.07,-4.92,-5.96,3.12,17.87,
2.724,0.46,-0.07,-4.92,-6.39,1.35,13.13,
2.724,1.93,0.21,-4.33,-6.39,1.35,13.13,
2.725,1.93,0.21,-4.33,-8.59,0.62,13.57,
2.728,3.26,0.39,-3.65,-8.59,0.62,13.57,
2.728,3.26,0.39,-3.65,-9.49,0.12,13.77,
2.733,4.32,0.46,-2.98,-9.49,0.12,13.77,
2.733,4.32,0.46,-2.98,-8.71,-0.25,11.60,
2.736,5.09,0.44,-2.39,-8.71,-0.25,11.60,
2.737,5.09,0.44,-2.39,-7.05,-0.46,8.16,
2.742,5.09,0.44,-2.39,-6.10,-0.61,4.92,
2.743,5.58,0.41,-1.91,-6.10,-0.61,4.92,
2.747,5.58,0.41,-1.91,-5.62,-0.83,2.37,
2.747,5.84,0.40,-1.51,-5.62,-0.83,2.37,
2.752,5.92,0.38,-1.17,-5.62,-0.83,2.37,
2.752,5.92,0.38,-1.17,-5.67,-0.81,-0.21,
2.757,5.84,0.39,-0.88,-5.67,-0.81,-0.21,
2.757,5.84,0.39,-0.88,-6.03,-0.46,-2.60,
2.762,5.64,0.43,-0.60,-6.03,-0.46,-2.60,
2.762,5.64,0.43,-0.60,-6.58,0.19,-4.85,
2.767,5.32,0.53,-0.31,-6.58,0.19,-4.85,
2.767,5.32,0.53,-0.31,-7.16,1.05,-6.91,
2.772,4.91,0.73,0.00,-7.16,1.05,-6.91,
2.772,4.91,0.73,0.00,-7.40,2.03,-8.08,
2.775,4.43,0.99,0.35,-7.40,2.03,-8.08,
2.775,4.43,0.99,0.35,-7.58,2.99,-8.92,
2.781,3.89,1.32,0.74,-7.58,2.99,-8.92,
2.781,3.89,1.32,0.74,-8.07,3.92,-10.17,
2.786,3.89,1.32,0.74,-8.76,4.52,-11.35,
2.786,3.29,1.72,1.18,-8.76,4.52,-11.35,
2.79,2.65,2.17,1.67,-8.76,4.52,-11.35,
2.79,2.65,2.17,1.67,-9.45,4.65,-12.56,
2.798,2.65,2.17,1.67,-10.05,4.45,-13.65,
2.799,1.97,2.64,2.22,-10.05,4.45,-13.65,
2.8,1.25,3.13,2.81,-10.05,4.45,-13.65,
2.801,1.25,3.13,2.81,-10.11,3.78,-14.48,
2.805,0.48,3.58,3.40,-10.11,3.78,-14.48,
2.805,0.48,3.58,3.40,-9.41,2.70,-14.58,
2.81,-0.32,3.93,3.93,-9.41,2.70,-14.58,
2.811,-0.32,3.93,3.93,-7.88,1.22,-13.91,
2.814,-1.14,4.11,4.35,-7.88,1.22,-13.91,
2.817,-1.14,4.11,4.35,-5.66,-0.59,-12.44,
2.821,-1.97,4.04,4.61,-5.66,-0.59,-12.44,
2.822,-1.97,4.04,4.61,-3.10,-2.52,-10.60,
2.825,-2.78,3.74,4.70,-3.10,-2.52,-10.60,
2.826,-2.78,3.74,4.70,-0.77,-4.30,-8.89,
2.839,-2.78,3.74,4.70,1.27,-5.97,-8.09,
2.839,-3.54,3.26,4.64,1.27,-5.97,-8.09,
2.84,-3.54,3.26,4.64,2.94,-7.36,-7.97,
2.841,-4.28,2.67,4.43,2.94,-7.36,-7.97,
2.841,-5.01,2.07,4.10,2.94,-7.36,-7.97,
2.841,-5.01,2.07,4.10,4.16,-8.36,-8.58,
2.845,-5.01,2.07,4.10,4.92,-9.00,-8.95,
2.845,-5.70,1.63,3.70,4.92,-9.00,-8.95,
2.851,-6.31,1.38,3.26,4.92,-9.00,-8.95,
2.852,-6.31,1.38,3.26,5.46,-9.44,-8.05,
2.853,-6.80,1.22,2.82,5.46,-9.44,-8.05,
2.854,-6.80,1.22,2.82,5.75,-9.72,-6.17,
2.859,-7.20,1.05,2.39,5.75,-9.72,-6.17,
2.86,-7.20,1.05,2.39,5.87,-9.90,-4.05,
2.863,-7.52,0.83,1.98,5.87,-9.90,-4.05,
2.863,-7.52,0.83,1.98,5.83,-9.98,-2.23,
2.868,-7.78,0.54,1.61,5.83,-9.98,-2.23,
2.869,-7.78,0.54,1.61,5.59,-9.94,-0.80,
2.872,-7.78,0.54,1.61,5.17,-9.85,0.58,
2.873,-7.98,0.19,1.29,5.17,-9.85,0.58,
2.878,-8.12,-0.28,1.00,5.17,-9.85,0.58,
2.879,-8.12,-0.28,1.00,4.74,-9.84,1.57,
2.882,-8.22,-0.82,0.77,4.74,-9.84,1.57,
2.883,-8.22,-0.82,0.77,4.74,-9.93,1.80,
2.887,-8.27,-1.40,0.55,4.74,-9.93,1.80,
2.887,-8.27,-1.40,0.55,5.21,-10.17,2.72,
2.892,-8.28,-2.07,0.33,5.21,-10.17,2.72,
2.893,-8.28,-2.07,0.33,6.05,-10.38,3.70,
2.897,-8.28,-2.07,0.33,7.08,-10.55,4.33,
2.898,-8.25,-2.85,0.08,7.08,-10.55,4.33,
2.917,-8.20,-3.63,-0.21,7.08,-10.55,4.33,
2.917,-8.20,-3.63,-0.21,8.21,-10.68,3.79,
2.918,-8.15,-4.23,-0.56,8.21,-10.68,3.79,
2.918,-8.15,-4.23,-0.56,10.14,-10.98,2.00,
2.919,-7.97,-3.73,-1.09,10.14,-10.98,2.00,
2.919,-7.97,-3.73,-1.09,17.81,-12.03,6.71,
2.919,-7.24,-1.63,-1.95,17.81,-12.03,6.71,
2.92,-7.24,-1.63,-1.95,9.88,-10.75,20.67,
2.922,-6.37,-1.80,-2.74,9.88,-10.75,20.67,
2.922,-6.37,-1.80,-2.74,2.72,-4.26,34.07,
2.926,-5.02,-2.88,-3.18,2.72,-4.26,34.07,
2.926,-5.02,-2.88,-3.18,-2.08,3.62,33.83,
2.931,-3.20,-2.49,-3.28,-2.08,3.62,33.83,
2.932,-3.20,-2.49,-3.28,-1.68,3.77,19.27,
2.936,-1.24,-1.31,-3.24,-1.68,3.77,19.27,
2.936,-1.24,-1.31,-3.24,-3.03,2.86,17.98,
2.941,0.96,-0.38,-2.95,-3.03,2.86,17.98,
2.941,0.96,-0.38,-2.95,-3.39,1.19,25.42,
2.95,3.12,-0.38,-2.42,-3.39,1.19,25.42,
2.951,3.12,-0.38,-2.42,-2.95,-0.70,23.44,
2.952,4.92,-0.53,-1.78,-2.95,-0.70,23.44,
2.952,4.92,-0.53,-1.78,-3.06,-1.92,17.61,
2.961,6.31,-0.38,-1.13,-3.06,-1.92,17.61,
2.962,7.33,0.02,-0.51,-3.06,-1.92,17.61,
2.966,7.33,0.02,-0.51,-3.62,-2.69,12.18,
2.966,7.33,0.02,-0.51,-4.01,-3.55,7.89,
2.967,7.33,0.02,-0.51,-4.01,-4.35,4.52,
2.967,8.00,0.48,0.07,-4.01,-4.35,4.52,
2.971,8.00,0.48,0.07,-4.07,-4.75,2.54,
2.972,8.37,0.88,0.58,-4.07,-4.75,2.54,
2.974,8.50,1.15,1.01,-4.07,-4.75,2.54,
2.975,8.50,1.15,1.01,-3.82,-4.80,1.25,
2.979,8.42,1.25,1.36,-3.82,-4.80,1.25,
2.98,8.42,1.25,1.36,-3.40,-4.45,-0.28,
2.985,8.19,1.26,1.66,-3.40,-4.45,-0.28,
2.985,8.19,1.26,1.66,-3.02,-3.83,-2.42,
2.989,7.82,1.26,1.95,-3.02,-3.83,-2.42,
2.989,7.82,1.26,1.95,-2.86,-3.16,-4.69,
2.994,7.35,1.32,2.22,-2.86,-3.16,-4.69,
2.994,7.35,1.32,2.22,-3.09,-2.59,-6.87,
2.999,6.81,1.48,2.51,-3.09,-2.59,-6.87,
3.0,6.81,1.48,2.51,-3.72,-1.98,-8.80,
3.005,6.19,1.75,2.82,-3.72,-1.98,-8.80,
3.005,6.19,1.75,2.82,-4.30,-1.29,-10.25,
3.009,6.19,1.75,2.82,-4.65,-0.53,-11.19,
3.009,5.51,2.07,3.18,-4.65,-0.53,-11.19,
3.018,4.78,2.42,3.59,-4.65,-0.53,-11.19,
3.022,4.78,2.42,3.59,-4.66,0.28,-12.21,
3.023,4.00,2.81,4.03,-4.66,0.28,-12.21,
3.024,4.00,2.81,4.03,-4.32,1.02,-12.82,
3.025,3.18,3.18,4.50,-4.32,1.02,-12.82,
3.025,3.18,3.18,4.50,-3.76,1.37,-13.04,
3.028,2.30,3.48,4.96,-3.76,1.37,-13.04,
3.029,2.30,3.48,4.96,-3.28,1.39,-13.10,
3.033,2.30,3.48,4.96,-2.95,1.07,-13.09,
3.034,1.39,3.70,5.39,-2.95,1.07,-13.09,
3.038,0.47,3.84,5.77,-2.95,1.07,-13.09,
3.038,0.47,3.84,5.77,-2.54,0.35,-13.06,
3.042,0.47,3.84,5.77,-1.92,-0.80,-12.70,
3.043,-0.47,3.92,6.07,-1.92,-0.80,-12.70,
3.048,-1.40,3.90,6.28,-1.92,-0.80,-12.70,
3.048,-1.40,3.90,6.28,-1.04,-2.21,-12.12,
3.052,-2.30,3.80,6.39,-1.04,-2.21,-12.12,
3.053,-2.30,3.80,6.39,-0.01,-3.71,-11.24,
3.058,-2.30,3.80,6.39,0.97,-5.20,-10.44,
3.058,-3.16,3.59,6.39,0.97,-5.20,-10.44,
3.063,-3.96,3.31,6.28,0.97,-5.20,-10.44,
3.063,-3.96,3.31,6.28,1.81,-6.52,-9.53,
3.067,-4.70,2.97,6.08,1.81,-6.52,-9.53,
3.067,-4.70,2.97,6.08,2.42,-7.64,-9.34,
3.071,-4.70,2.97,6.08,2.94,-8.51,-8.61,
3.072,-5.36,2.71,5.82,2.94,-8.51,-8.61,
3.076,-5.91,2.47,5.50,2.94,-8.51,-8.61,
3.077,-5.91,2.47,5.50,3.28,-9.01,-7.56,
3.082,-6.36,2.24,5.16,3.28,-9.01,-7.56,
3.083,-6.36,2.24,5.16,3.39,-9.10,-6.56,
3.086,-6.72,2.03,4.82,3.39,-9.10,-6.56,
3.087,-6.72,2.03,4.82,3.23,-8.84,-5.80,
3.091,-6.99,1.88,4.52,3.23,-8.84,-5.80,
3.091,-6.99,1.88,4.52,2.80,-8.34,-5.16,
3.099,-7.19,1.76,4.28,2.80,-8.34,-5.16,
3.099,-7.19,1.76,4.28,2.12,-7.76,-4.59,
3.102,-7.19,1.76,4.28,1.27,-7.11,-4.29,
3.103,-7.35,1.66,4.09,1.27,-7.11,-4.29,
3.108,-7.46,1.62,3.96,1.27,-7.11,-4.29,
3.108,-7.46,1.62,3.96,0.04,-6.44,-4.00,
3.112,-7.54,1.61,3.91,0.04,-6.44,-4.00,
3.112,-7.54,1.61,3.91,-1.54,-5.80,-3.49,
3.117,-7.54,1.61,3.91,-3.28,-5.32,-2.99,
3.117,-7.58,1.60,3.95,-3.28,-5.32,-2.99,
3.121,-7.57,1.56,4.10,-3.28,-5.32,-2.99,
3.122,-7.57,1.56,4.10,-4.91,-5.06,-2.55,
3.127,-7.53,1.50,4.31,-4.91,-5.06,-2.55,
3.128,-7.53,1.50,4.31,-6.19,-4.96,-2.01,
3.141,-7.45,1.43,4.57,-6.19,-4.96,-2.01,
3.15,-7.45,1.43,4.57,-6.90,-4.86,-1.45,
3.151,-7.34,1.33,4.83,-6.90,-4.86,-1.45,
3.151,-7.34,1.33,4.83,-6.88,-4.70,-0.77,
3.152,-7.20,1.20,5.08,-6.88,-4.70,-0.77,
3.152,-7.20,1.20,5.08,-6.09,-4.53,-0.28,
3.177,-7.01,1.08,5.27,-6.09,-4.53,-0.28,
3.177,-6.80,0.99,5.40,-6.09,-4.53,-0.28,
3.178,-6.80,0.99,5.40,-4.70,-4.51,0.28,
3.178,-6.80,0.99,5.40,-3.63,-4.35,0.25,
3.178,-6.57,0.94,5.46,-3.63,-4.35,0.25,
3.179,-6.57,0.94,5.46,-2.31,-4.21,0.12,
3.179,-6.34,0.91,5.47,-2.31,-4.21,0.12,
3.18,-6.34,0.91,5.47,-0.83,-4.19,0.02,
3.18,-6.11,0.92,5.41,-0.83,-4.19,0.02,
3.181,-6.11,0.92,5.41,0.51,-4.19,-0.05,
3.181,-5.89,0.94,5.30,0.51,-4.19,-0.05,
3.181,-5.89,0.94,5.30,1.25,-4.00,-0.09,
3.181,-5.89,0.94,5.30,1.48,-3.66,-0.13,
3.182,-5.68,0.96,5.14,1.48,-3.66,-0.13,
3.182,-5.49,0.96,4.96,1.48,-3.66,-0.13,
3.183,-5.49,0.96,4.96,1.56,-3.08,0.13,
3.183,-5.49,0.96,4.96,1.63,-2.50,0.27,
3.184,-5.32,0.88,4.77,1.63,-2.50,0.27,
3.188,-5.16,0.72,4.57,1.63,-2.50,0.27,
3.19,-5.16,0.72,4.57,1.76,-1.99,0.25,
3.195,-5.04,0.49,4.37,1.76,-1.99,0.25,
3.195,-5.04,0.49,4.37,1.96,-1.68,-0.27,
3.199,-5.04,0.49,4.37,2.12,-1.73,-1.24,
3.2,-4.98,0.26,4.16,2.12,-1.73,-1.24,
3.203,-4.98,0.26,4.16,2.24,-2.11,-2.41,
3.203,-4.97,0.09,3.92,2.24,-2.11,-2.41,
3.208,-5.03,-0.02,3.67,2.24,-2.11,-2.41,
3.208,-5.03,-0.02,3.67,2.27,-2.68,-3.35,
3.213,-5.03,-0.02,3.67,2.11,-3.25,-3.80,
3.213,-5.13,-0.10,3.41,2.11,-3.25,-3.80,
3.218,-5.28,-0.22,3.16,2.11,-3.25,-3.80,
3.219,-5.28,-0.22,3.16,1.86,-3.65,-4.08,
3.223,-5.45,-0.41,2.94,1.86,-3.65,-4.08,
3.223,-5.45,-0.41,2.94,1.54,-3.83,-4.40,
3.227,-5.65,-0.66,2.76,1.54,-3.83,-4.40,
3.227,-5.65,-0.66,2.76,1.25,-4.01,-4.53,
3.232,-5.65,-0.66,2.76,1.05,-4.16,-4.58,
3.232,-5.88,-0.95,2.63,1.05,-4.16,-4.58,
3.237,-6.13,-1.26,2.53,1.05,-4.16,-4.58,
3.237,-6.13,-1.26,2.53,1.19,-4.37,-4.56,
3.241,-6.40,-1.58,2.46,1.19,-4.37,-4.56,
3.242,-6.40,-1.58,2.46,1.53,-4.58,-4.58,
3.248,-6.40,-1.58,2.46,2.01,-4.98,-4.76,
3.249,-6.70,-1.85,2.40,2.01,-4.98,-4.76,
3.254,-7.03,-2.06,2.33,2.01,-4.98,-4.76,
3.256,-7.03,-2.06,2.33,2.45,-5.55,-5.00,
3.257,-7.03,-2.06,2.33,3.00,-6.03,-6.44,
3.257,-7.42,-2.20,2.27,3.00,-6.03,-6.44,
3.262,-7.86,-2.11,2.20,3.00,-6.03,-6.44,
3.262,-7.86,-2.11,2.20,3.72,-6.57,-6.46,
3.266,-7.86,-2.11,2.20,3.55,-6.28,-4.80,
3.267,-8.24,-1.51,2.11,3.55,-6.28,-4.80,
3.271,-8.49,-0.52,2.00,3.55,-6.28,-4.80,
3.272,-8.49,-0.52,2.00,3.23,-5.55,-1.87,
3.276,-8.57,0.58,1.88,3.23,-5.55,-1.87,
3.276,-8.57,0.58,1.88,2.26,-5.13,3.56,
3.281,-8.44,1.43,1.80,2.26,-5.13,3.56,
3.282,-8.44,1.43,1.80,1.42,-4.98,11.96,
3.285,-8.44,1.43,1.80,1.20,-4.98,20.57,
3.286,-8.08,1.58,1.78,1.20,-4.98,20.57,
3.29,-8.08,1.58,1.78,0.87,-4.70,22.03,
3.29,-7.52,1.00,1.83,0.87,-4.70,22.03,
3.295,-6.85,0.35,1.96,0.87,-4.70,22.03,
3.296,-6.85,0.35,1.96,-0.20,-4.27,17.96,
3.3,-6.12,0.07,2.20,-0.20,-4.27,17.96,
3.301,-6.12,0.07,2.20,-1.69,-3.87,14.79,
3.305,-5.34,0.04,2.56,-1.69,-3.87,14.79,
3.305,-5.34,0.04,2.56,-2.87,-3.73,13.60,
3.309,-4.55,0.13,2.98,-2.87,-3.73,13.60,
3.31,-4.55,0.13,2.98,-3.23,-3.78,13.19,
3.314,-3.78,0.25,3.38,-3.23,-3.78,13.19,
3.315,-3.78,0.25,3.38,-2.65,-3.85,13.39,
3.319,-3.78,0.25,3.38,-1.52,-3.78,14.01,
3.32,-3.07,0.32,3.71,-1.52,-3.78,14.01,
3.324,-2.41,0.23,3.93,-1.52,-3.78,14.01,
3.324,-2.41,0.23,3.93,-0.33,-3.73,14.21,
3.331,-1.80,0.02,4.05,-0.33,-3.73,14.21,
3.332,-1.80,0.02,4.05,0.80,-3.90,13.62,
3.336,-1.24,-0.18,4.05,0.80,-3.90,13.62,
3.336,-1.24,-0.18,4.05,2.16,-4.11,12.63,
3.347,-0.72,-0.35,3.91,2.16,-4.11,12.63,
3.347,-0.72,-0.35,3.91,3.61,-4.27,11.40,
3.35,-0.24,-0.49,3.64,3.61,-4.27,11.40,
3.351,-0.24,-0.49,3.64,4.99,-4.37,9.93,
3.351,0.19,-0.58,3.25,4.99,-4.37,9.93,
3.351,0.19,-0.58,3.25,6.12,-4.41,8.44,
3.356,0.19,-0.58,3.25,6.85,-4.28,6.99,
3.357,0.55,-0.65,2.78,6.85,-4.28,6.99,
3.358,0.55,-0.65,2.78,7.44,-4.06,5.58,
3.359,0.82,-0.70,2.27,7.44,-4.06,5.58,
3.378,0.82,-0.70,2.27,7.86,-3.71,4.61,
3.379,1.00,-0.73,1.76,7.86,-3.71,4.61,
3.379,1.11,-0.75,1.28,7.86,-3.71,4.61,
3.379,1.16,-0.78,0.83,7.86,-3.71,4.61,
3.38,1.16,-0.78,0.83,7.88,-3.40,3.92,
3.38,1.16,-0.78,0.83,7.34,-3.22,3.47,
3.38,1.17,-0.80,0.45,7.34,-3.22,3.47,
3.381,1.17,-0.80,0.45,6.29,-3.18,2.77,
3.382,1.13,-0.79,0.15,6.29,-3.18,2.77,
3.383,1.13,-0.79,0.15,4.94,-3.21,2.03,
3.406,1.13,-0.79,0.15,3.63,-3.32,1.45,
3.406,1.07,-0.74,-0.06,3.63,-3.32,1.45,
3.407,1.00,-0.64,-0.20,3.63,-3.32,1.45,
3.407,1.00,-0.64,-0.20,2.33,-3.46,1.01,
3.408,1.00,-0.64,-0.20,1.10,-3.57,0.73,
3.408,0.91,-0.50,-0.26,1.10,-3.57,0.73,
3.408,0.82,-0.31,-0.27,1.10,-3.57,0.73,
3.409,0.82,-0.31,-0.27,0.04,-3.62,0.51,
3.409,0.74,-0.11,-0.22,0.04,-3.62,0.51,
3.409,0.74,-0.11,-0.22,-0.77,-3.65,0.42,
3.412,0.74,-0.11,-0.22,-1.39,-3.53,0.56,
3.412,0.67,0.10,-0.15,-1.39,-3.53,0.56,
3.416,0.62,0.29,-0.05,-1.39,-3.53,0.56,
3.416,0.62,0.29,-0.05,-0.97,-3.32,0.62,
3.424,0.62,0.29,-0.05,-0.70,-3.19,0.96,
3.424,0.58,0.44,0.03,-0.70,-3.19,0.96,
3.427,0.57,0.61,0.09,-0.70,-3.19,0.96,
3.428,0.57,0.61,0.09,-1.22,-2.87,1.67,
3.431,0.57,0.61,0.09,-1.87,-2.28,1.58,
3.432,0.60,0.77,0.14,-1.87,-2.28,1.58,
3.436,0.60,0.77,0.14,-2.62,-1.39,0.95,
3.436,0.63,0.91,0.18,-2.62,-1.39,0.95,
3.441,0.63,0.91,0.18,-3.13,-0.49,0.66,
3.441,0.68,1.05,0.23,-3.13,-0.49,0.66,
3.446,0.73,1.18,0.30,-3.13,-0.49,0.66,
3.446,0.73,1.18,0.30,-3.35,0.22,0.55,
3.451,0.78,1.27,0.37,-3.35,0.22,0.55,
3.451,0.78,1.27,0.37,-3.31,0.70,0.58,
3.455,0.83,1.30,0.44,-3.31,0.70,0.58,
3.455,0.83,1.30,0.44,-3.09,0.89,0.68,
3.46,0.89,1.26,0.51,-3.09,0.89,0.68,
3.46,0.89,1.26,0.51,-2.97,0.91,0.93,
3.465,0.93,1.11,0.58,-2.97,0.91,0.93,
3.465,0.93,1.11,0.58,-2.98,0.77,1.41,
3.47,0.97,0.84,0.65,-2.98,0.77,1.41,
3.47,0.97,0.84,0.65,-2.82,0.64,1.67,
3.478,1.00,0.49,0.71,-2.82,0.64,1.67,
3.478,1.00,0.49,0.71,-2.61,0.54,1.61,
3.48,1.02,0.13,0.76,-2.61,0.54,1.61,
3.48,1.02,0.13,0.76,-2.40,0.60,1.13,
3.493,1.03,-0.18,0.79,-2.40,0.60,1.13,
3.494,1.03,-0.18,0.79,-2.08,0.64,0.85,
3.494,1.03,-0.18,0.79,-1.89,0.71,0.50,
3.494,1.02,-0.44,0.81,-1.89,0.71,0.50,
3.494,1.01,-0.63,0.81,-1.89,0.71,0.50,
3.494,1.01,-0.63,0.81,-1.71,0.77,0.26,
3.501,1.00,-0.77,0.79,-1.71,0.77,0.26,
3.501,1.00,-0.77,0.79,-1.64,0.80,-0.01,
3.504,1.00,-0.77,0.79,-1.64,0.79,-0.15,
3.504,0.98,-0.82,0.76,-1.64,0.79,-0.15,
3.509,0.96,-0.80,0.73,-1.64,0.79,-0.15,
3.51,0.96,-0.80,0.73,-1.49,0.65,-0.09,
3.514,0.96,-0.80,0.73,-1.64,0.49,0.03,
3.515,0.94,-0.74,0.71,-1.64,0.49,0.03,
3.518,0.92,-0.64,0.71,-1.64,0.49,0.03,
3.519,0.92,-0.64,0.71,-1.95,0.31,0.19,
3.524,0.91,-0.53,0.75,-1.95,0.31,0.19,
3.525,0.91,-0.53,0.75,-2.13,0.09,0.23,
3.528,0.89,-0.40,0.79,-2.13,0.09,0.23,
3.528,0.89,-0.40,0.79,-2.10,-0.11,0.06,
3.533,0.86,-0.26,0.85,-2.10,-0.11,0.06,
3.534,0.86,-0.26,0.85,-2.06,-0.41,-0.01,
3.538,0.83,-0.12,0.92,-2.06,-0.41,-0.01,
3.538,0.83,-0.12,0.92,-1.98,-0.74,-0.06,
3.543,0.78,-0.01,0.98,-1.98,-0.74,-0.06,
3.543,0.78,-0.01,0.98,-1.86,-1.10,-0.11,
3.547,0.69,0.07,1.06,-1.86,-1.10,-0.11,
3.548,0.69,0.07,1.06,-1.75,-1.47,-0.13,
3.553,0.59,0.10,1.15,-1.75,-1.47,-0.13,
3.553,0.59,0.10,1.15,-1.63,-1.75,-0.13,
3.557,0.59,0.10,1.15,-1.35,-1.93,-0.12,
3.557,0.47,0.09,1.24,-1.35,-1.93,-0.12,
3.565,0.35,0.06,1.31,-1.35,-1.93,-0.12,
3.565,0.35,0.06,1.31,-0.84,-2.03,-0.05,
3.567,0.23,-0.00,1.37,-0.84,-2.03,-0.05,
3.567,0.23,-0.00,1.37,-0.14,-2.09,0.23,
3.572,0.12,-0.07,1.39,-0.14,-2.09,0.23,
3.572,0.12,-0.07,1.39,0.77,-2.16,0.67,
3.577,0.04,-0.16,1.38,0.77,-2.16,0.67,
3.577,0.04,-0.16,1.38,1.64,-2.12,1.08,
3.582,0.04,-0.16,1.38,2.50,-2.06,1.39,
3.583,-0.03,-0.23,1.32,2.50,-2.06,1.39,
3.587,-0.06,-0.27,1.22,2.50,-2.06,1.39,
3.587,-0.06,-0.27,1.22,3.27,-2.03,1.82,
3.592,-0.06,-0.25,1.08,3.27,-2.03,1.82,
3.592,-0.06,-0.25,1.08,3.82,-2.01,2.17,
3.597,-0.04,-0.19,0.92,3.82,-2.01,2.17,
3.597,-0.04,-0.19,0.92,4.10,-2.06,2.25,
3.601,-0.01,-0.06,0.75,4.10,-2.06,2.25,
3.601,-0.01,-0.06,0.75,4.07,-2.20,2.03,
3.606,0.03,0.12,0.58,4.07,-2.20,2.03,
3.606,0.03,0.12,0.58,3.78,-2.39,1.67,
3.611,0.05,0.34,0.45,3.78,-2.39,1.67,
3.611,0.05,0.34,0.45,3.25,-2.59,1.35,
3.615,0.07,0.58,0.36,3.25,-2.59,1.35,
3.616,0.07,0.58,0.36,2.57,-2.77,1.15,
3.62,0.07,0.83,0.31,2.57,-2.77,1.15,
3.621,0.07,0.83,0.31,2.05,-2.78,0.93,
3.625,0.08,1.09,0.28,2.05,-2.78,0.93,
3.625,0.08,1.09,0.28,1.55,-2.54,0.72,
3.647,0.08,1.35,0.28,1.55,-2.54,0.72,
3.647,0.08,1.35,0.28,0.87,-2.20,0.43,
3.647,0.10,1.58,0.31,0.87,-2.20,0.43,
3.648,0.10,1.58,0.31,0.14,-1.79,0.10,
3.648,0.13,1.76,0.38,0.14,-1.79,0.10,
3.648,0.13,1.76,0.38,-0.64,-1.43,0.04,
3.649,0.13,1.76,0.38,-1.23,-1.16,0.36,
3.649,0.14,1.84,0.49,-1.23,-1.16,0.36,
3.649,0.14,1.76,0.61,-1.23,-1.16,0.36,
3.65,0.14,1.76,0.61,-1.28,-0.98,0.90,
3.655,0.14,1.76,0.61,-0.65,-0.83,1.11,
3.655,0.12,1.51,0.73,-0.65,-0.83,1.11,
3.659,0.11,1.19,0.82,-0.65,-0.83,1.11,
3.66,0.11,1.19,0.82,0.54,-0.74,0.78,
3.665,0.12,0.88,0.86,0.54,-0.74,0.78,
3.666,0.12,0.88,0.86,1.61,-0.61,0.18,
3.67,0.15,0.66,0.86,1.61,-0.61,0.18,
3.671,0.15,0.66,0.86,2.26,-0.41,-0.27,
3.674,0.20,0.51,0.82,2.26,-0.41,-0.27,
3.675,0.20,0.51,0.82,2.61,-0.11,-0.28,
3.679,0.26,0.39,0.76,2.61,-0.11,-0.28,
3.68,0.26,0.39,0.76,2.52,0.29,0.04,
3.684,0.31,0.27,0.69,2.52,0.29,0.04,
3.684,0.31,0.27,0.69,2.43,0.63,0.40,
3.688,0.36,0.13,0.60,2.43,0.63,0.40,
3.689,0.36,0.13,0.60,2.63,0.75,0.64,
3.693,0.41,0.00,0.48,2.63,0.75,0.64,
3.694,0.41,0.00,0.48,2.88,0.76,0.79,
3.698,0.46,-0.07,0.35,2.88,0.76,0.79,
3.698,0.46,-0.07,0.35,3.11,0.63,0.79,
3.703,0.53,-0.06,0.21,3.11,0.63,0.79,
3.704,0.53,-0.06,0.21,3.18,0.40,0.82,
3.708,0.53,-0.06,0.21,2.94,0.15,0.93,
3.708,0.59,0.01,0.07,2.94,0.15,0.93,
3.712,0.66,0.11,-0.06,2.94,0.15,0.93,
3.713,0.66,0.11,-0.06,2.47,-0.13,1.06,
3.718,0.72,0.22,-0.17,2.47,-0.13,1.06,
3.719,0.72,0.22,-0.17,2.01,-0.49,0.88,
3.722,0.72,0.22,-0.17,1.67,-0.87,0.47,
3.723,0.78,0.36,-0.25,1.67,-0.87,0.47,
3.727,0.85,0.54,-0.29,1.67,-0.87,0.47,
3.727,0.85,0.54,-0.29,1.44,-1.26,0.25,
3.733,0.85,0.54,-0.29,1.19,-1.62,0.17,
3.733,0.92,0.72,-0.30,1.19,-1.62,0.17,
3.737,1.00,0.86,-0.28,1.19,-1.62,0.17,
3.737,1.00,0.86,-0.28,0.90,-1.87,0.24,
3.742,1.00,0.86,-0.28,0.73,-2.05,0.37,
3.743,1.06,0.93,-0.23,0.73,-2.05,0.37,
3.748,1.06,0.93,-0.23,0.66,-2.05,0.70,
3.748,1.12,0.93,-0.17,0.66,-2.05,0.70,
3.752,1.12,0.93,-0.17,0.77,-1.95,0.99,
3.752,1.18,0.83,-0.10,0.77,-1.95,0.99,
3.757,1.18,0.83,-0.10,0.88,-1.76,1.17,
3.757,1.24,0.68,-0.04,0.88,-1.76,1.17,
3.761,1.31,0.52,0.00,0.88,-1.76,1.17,
3.762,1.31,0.52,0.00,1.01,-1.43,1.38,
3.767,1.31,0.52,0.00,1.04,-1.02,1.71,
3.768,1.39,0.36,0.02,1.04,-1.02,1.71,
3.771,1.49,0.21,0.02,1.04,-1.02,1.71,
3.771,1.49,0.21,0.02,1.12,-0.58,2.14,
3.775,1.49,0.21,0.02,1.30,-0.21,2.39,
3.776,1.61,0.07,-0.00,1.30,-0.21,2.39,
3.785,1.74,-0.03,-0.05,1.30,-0.21,2.39,
3.79,1.74,-0.03,-0.05,1.59,0.11,2.42,
3.791,1.74,-0.03,-0.05,1.85,0.31,2.27,
3.791,1.89,-0.09,-0.13,1.85,0.31,2.27,
3.791,2.05,-0.10,-0.23,1.85,0.31,2.27,
3.791,2.05,-0.10,-0.23,2.02,0.32,2.12,
3.796,2.05,-0.10,-0.23,2.09,0.15,1.99,
3.796,2.22,-0.06,-0.33,2.09,0.15,1.99,
3.809,2.22,-0.06,-0.33,2.00,-0.04,1.97,
3.81,2.40,0.01,-0.45,2.00,-0.04,1.97,
3.811,2.58,0.10,-0.56,2.00,-0.04,1.97,
3.811,2.58,0.10,-0.56,1.92,-0.27,1.85,
3.811,2.58,0.10,-0.56,1.91,-0.57,1.71,
3.812,2.77,0.21,-0.67,1.91,-0.57,1.71,
3.819,2.77,0.21,-0.67,1.84,-0.67,1.37,
3.82,2.95,0.31,-0.77,1.84,-0.67,1.37,
3.82,2.95,0.31,-0.77,1.70,-0.33,0.42,
3.82,3.10,0.43,-0.85,1.70,-0.33,0.42,
3.826,3.10,0.43,-0.85,1.42,0.09,0.31,
3.826,3.18,0.61,-0.89,1.42,0.09,0.31,
3.831,3.18,0.61,-0.89,0.93,0.38,0.98,
3.831,3.21,0.72,-0.88,0.93,0.38,0.98,
3.834,3.21,0.72,-0.88,0.31,0.55,0.94,
3.834,3.20,0.71,-0.87,0.31,0.55,0.94,
3.839,3.20,0.71,-0.87,-0.10,0.59,0.07,
3.839,3.15,0.62,-0.83,-0.10,0.59,0.07,
3.844,3.06,0.55,-0.75,-0.10,0.59,0.07,
3.844,3.06,0.55,-0.75,0.10,0.25,-1.37,
3.848,2.92,0.58,-0.72,0.10,0.25,-1.37,
3.849,2.92,0.58,-0.72,1.12,0.19,-3.32,
3.853,2.92,0.58,-0.72,1.48,0.82,-3.41,
3.854,2.69,0.76,-0.77,1.48,0.82,-3.41,
3.858,2.41,0.91,-0.84,1.48,0.82,-3.41,
3.858,2.41,0.91,-0.84,0.97,1.37,-2.00,
3.863,2.41,0.91,-0.84,0.28,1.80,-1.00,
3.864,2.11,0.92,-0.85,0.28,1.80,-1.00,
3.868,1.80,0.83,-0.79,0.28,1.80,-1.00,
3.868,1.80,0.83,-0.79,-0.28,2.01,-0.18,
3.891,1.80,0.83,-0.79,-0.65,2.03,-0.08,
3.891,1.50,0.65,-0.68,-0.65,2.03,-0.08,
3.891,1.21,0.49,-0.53,-0.65,2.03,-0.08,
3.892,1.21,0.49,-0.53,-0.56,2.01,-0.35,
3.892,1.21,0.49,-0.53,-0.23,1.96,-0.53,
3.892,0.94,0.39,-0.38,-0.23,1.96,-0.53,
3.893,0.72,0.34,-0.25,-0.23,1.96,-0.53,
3.893,0.72,0.34,-0.25,0.14,1.93,-0.59,
3.893,0.72,0.34,-0.25,0.38,1.91,-0.69,
3.893,0.53,0.36,-0.15,0.38,1.91,-0.69,
3.897,0.38,0.42,-0.06,0.38,1.91,-0.69,
3.898,0.38,0.42,-0.06,0.40,1.88,-0.79,
3.902,0.38,0.42,-0.06,0.23,1.85,-0.86,
3.902,0.26,0.52,-0.00,0.23,1.85,-0.86,
3.907,0.26,0.52,-0.00,0.12,1.65,-0.89,
3.907,0.16,0.65,0.05,0.12,1.65,-0.89,
3.916,0.09,0.79,0.09,0.12,1.65,-0.89,
3.916,0.09,0.79,0.09,-0.11,1.43,-0.92,
3.917,0.05,0.97,0.12,-0.11,1.43,-0.92,
3.917,0.05,0.97,0.12,-0.09,1.13,-0.80,
3.922,0.04,1.16,0.15,-0.09,1.13,-0.80,
3.922,0.04,1.16,0.15,-0.03,0.82,-0.58,
3.926,0.06,1.32,0.18,-0.03,0.82,-0.58,
3.927,0.06,1.32,0.18,-0.18,0.61,-0.33,
3.933,0.09,1.42,0.20,-0.18,0.61,-0.33,
3.934,0.09,1.42,0.20,-0.23,0.33,-0.23,
3.936,0.09,1.42,0.20,-0.44,0.18,-0.16,
3.936,0.12,1.48,0.23,-0.44,0.18,-0.16,
3.942,0.12,1.48,0.23,-0.50,0.05,-0.05,
3.942,0.16,1.49,0.26,-0.50,0.05,-0.05,
3.946,0.21,1.46,0.29,-0.50,0.05,-0.05,
3.946,0.21,1.46,0.29,-0.48,0.01,-0.06,
3.951,0.21,1.46,0.29,-0.29,-0.15,-0.08,
3.953,0.25,1.40,0.32,-0.29,-0.15,-0.08,
3.956,0.29,1.31,0.33,-0.29,-0.15,-0.08,
3.956,0.29,1.31,0.33,-0.10,-0.15,-0.25,
3.961,0.29,1.31,0.33,0.08,-0.05,-0.34,
3.963,0.32,1.23,0.34,0.08,-0.05,-0.34,
3.966,0.34,1.14,0.34,0.08,-0.05,-0.34,
3.966,0.34,1.14,0.34,0.21,0.15,-0.45,
3.971,0.34,1.14,0.34,0.37,0.38,-0.46,
3.971,0.35,1.08,0.33,0.37,0.38,-0.46,
3.975,0.35,1.03,0.32,0.37,0.38,-0.46,
3.975,0.35,1.03,0.32,0.31,0.73,-0.30,
3.981,0.35,1.03,0.32,0.09,1.05,0.18,
3.982,0.33,0.98,0.30,0.09,1.05,0.18,
3.986,0.33,0.98,0.30,-0.19,1.30,0.66,
3.987,0.30,0.89,0.28,-0.19,1.30,0.66,
3.991,0.26,0.75,0.26,-0.19,1.30,0.66,
3.991,0.26,0.75,0.26,-0.32,1.42,0.91,
3.995,0.22,0.61,0.24,-0.32,1.42,0.91,
3.996,0.22,0.61,0.24,-0.36,1.55,0.94,
3.999,0.18,0.47,0.24,-0.36,1.55,0.94,
4.0,0.18,0.47,0.24,-0.38,1.62,0.83,
4.004,0.18,0.47,0.24,-0.13,1.24,0.60,
4.005,0.15,0.39,0.26,-0.13,1.24,0.60,
4.009,0.15,0.39,0.26,0.28,0.65,0.42,
4.01,0.15,0.36,0.28,0.28,0.65,0.42,
4.019,0.15,0.38,0.28,0.28,0.65,0.42,
4.02,0.15,0.38,0.28,0.75,0.09,0.36,
4.02,0.15,0.38,0.28,1.12,-0.27,0.48,
4.02,0.16,0.42,0.27,1.12,-0.27,0.48,
4.025,0.19,0.47,0.25,1.12,-0.27,0.48,
4.026,0.19,0.47,0.25,1.28,-0.41,0.74,
4.037,0.19,0.47,0.25,1.28,-0.44,0.92,
4.038,0.22,0.51,0.22,1.28,-0.44,0.92,
4.038,0.22,0.51,0.22,1.19,-0.41,0.93,
4.039,0.26,0.54,0.20,1.19,-0.41,0.93,
4.039,0.30,0.57,0.18,1.19,-0.41,0.93,
4.039,0.30,0.57,0.18,0.98,-0.34,0.88,
4.044,0.30,0.57,0.18,0.72,-0.23,0.79,
4.044,0.34,0.61,0.17,0.72,-0.23,0.79,
4.049,0.34,0.61,0.17,0.40,-0.14,0.70,
4.049,0.37,0.64,0.18,0.40,-0.14,0.70,
4.054,0.37,0.64,0.18,0.13,-0.03,0.67,
4.054,0.39,0.67,0.19,0.13,-0.03,0.67,
4.059,0.41,0.68,0.22,0.13,-0.03,0.67,
4.059,0.41,0.68,0.22,-0.07,0.04,0.64,
4.063,0.41,0.68,0.22,-0.12,0.05,0.56,
4.064,0.41,0.66,0.25,-0.12,0.05,0.56,
4.067,0.40,0.64,0.29,-0.12,0.05,0.56,
4.068,0.40,0.64,0.29,-0.02,0.02,0.45,
4.072,0.39,0.60,0.32,-0.02,0.02,0.45,
4.072,0.39,0.60,0.32,0.15,-0.01,0.36,
4.077,0.39,0.60,0.32,0.28,0.04,0.30,
4.077,0.38,0.57,0.35,0.28,0.04,0.30,
4.082,0.36,0.54,0.36,0.28,0.04,0.30,
4.082,0.36,0.54,0.36,0.50,0.07,0.29,
4.087,0.36,0.54,0.36,0.72,0.14,0.36,
4.087,0.34,0.52,0.35,0.72,0.14,0.36,
4.091,0.33,0.50,0.33,0.72,0.14,0.36,
4.092,0.33,0.50,0.33,0.87,0.21,0.46,
4.097,0.31,0.49,0.31,0.87,0.21,0.46,
4.098,0.31,0.49,0.31,0.99,0.24,0.43,
4.102,0.31,0.50,0.27,0.99,0.24,0.43,
4.102,0.31,0.50,0.27,1.09,0.23,0.37,
4.106,0.31,0.53,0.23,1.09,0.23,0.37,
4.106,0.31,0.53,0.23,1.20,0.17,0.34,
4.111,0.31,0.57,0.19,1.20,0.17,0.34,
4.112,0.31,0.57,0.19,1.31,0.06,0.34,
4.135,0.31,0.61,0.15,1.31,0.06,0.34,
4.136,0.31,0.61,0.15,1.32,-0.03,0.36,
4.136,0.31,0.65,0.12,1.32,-0.03,0.36,
4.136,0.31,0.65,0.12,1.22,-0.09,0.45,
4.137,0.32,0.70,0.09,1.22,-0.09,0.45,
4.137,0.32,0.70,0.09,1.09,-0.04,0.58,
4.137,0.32,0.73,0.07,1.09,-0.04,0.58,
4.138,0.32,0.73,0.07,0.89,0.05,0.53,
4.138,0.32,0.73,0.07,0.73,0.14,0.35,
4.138,0.32,0.74,0.06,0.73,0.14,0.35,
4.146,0.30,0.76,0.06,0.73,0.14,0.35,
4.151,0.30,0.76,0.06,0.71,0.13,0.14,
4.152,0.30,0.76,0.06,1.12,-0.28,-0.10,
4.152,0.27,0.77,0.05,1.12,-0.28,-0.10,
4.152,0.27,0.77,0.05,1.10,-0.13,-0.31,
4.153,0.22,0.76,0.02,1.10,-0.13,-0.31,
4.156,0.17,0.75,-0.02,1.10,-0.13,-0.31,
4.156,0.17,0.75,-0.02,0.74,0.24,-0.57,
4.16,0.17,0.75,-0.02,0.52,0.59,-0.80,
4.16,0.12,0.75,-0.05,0.52,0.59,-0.80,
4.165,0.06,0.74,-0.07,0.52,0.59,-0.80,
4.165,0.06,0.74,-0.07,0.66,0.70,-0.84,
4.17,-0.01,0.72,-0.09,0.66,0.70,-0.84,
4.17,-0.01,0.72,-0.09,1.43,0.23,-0.80,
4.175,-0.08,0.69,-0.14,1.43,0.23,-0.80,
4.175,-0.08,0.69,-0.14,1.67,0.28,-0.99,
4.179,-0.16,0.65,-0.21,1.67,0.28,-0.99,
4.18,-0.16,0.65,-0.21,1.14,0.30,-1.33,
4.184,-0.16,0.65,-0.21,1.25,-0.06,-1.72,
4.184,-0.23,0.64,-0.26,1.25,-0.06,-1.72,
4.189,-0.23,0.64,-0.26,1.60,-0.23,-1.88,
4.189,-0.30,0.63,-0.30,1.60,-0.23,-1.88,
4.193,-0.39,0.58,-0.33,1.60,-0.23,-1.88,
4.194,-0.39,0.58,-0.33,1.61,-0.27,-1.53,
4.198,-0.48,0.47,-0.35,1.61,-0.27,-1.53,
4.199,-0.48,0.47,-0.35,1.28,-0.19,-1.28,
4.203,-0.59,0.31,-0.36,1.28,-0.19,-1.28,
4.204,-0.59,0.31,-0.36,0.80,-0.04,-1.12,
4.208,-0.70,0.13,-0.35,0.80,-0.04,-1.12,
4.208,-0.70,0.13,-0.35,0.26,0.11,-1.01,
4.215,-0.82,-0.05,-0.32,0.26,0.11,-1.01,
4.216,-0.82,-0.05,-0.32,-0.25,0.27,-1.02,
4.219,-0.94,-0.18,-0.30,-0.25,0.27,-1.02,
4.219,-0.94,-0.18,-0.30,-0.84,0.49,-1.03,
4.222,-1.06,-0.25,-0.26,-0.84,0.49,-1.03,
4.223,-1.06,-0.25,-0.26,-1.49,0.71,-0.85,
4.228,-1.16,-0.26,-0.19,-1.49,0.71,-0.85,
4.228,-1.16,-0.26,-0.19,-1.98,0.88,-0.64,
4.232,-1.16,-0.26,-0.19,-2.04,0.74,-0.45,
4.234,-1.25,-0.23,-0.11,-2.04,0.74,-0.45,
4.237,-1.31,-0.15,-0.02,-2.04,0.74,-0.45,
4.238,-1.31,-0.15,-0.02,-1.90,0.49,-0.19,
4.242,-1.36,-0.05,0.06,-1.90,0.49,-0.19,
4.242,-1.36,-0.05,0.06,-1.66,0.22,0.16,
4.248,-1.38,0.06,0.13,-1.66,0.22,0.16,
4.249,-1.38,0.06,0.13,-1.35,-0.09,0.59,
4.252,-1.38,0.16,0.19,-1.35,-0.09,0.59,
4.253,-1.38,0.16,0.19,-1.02,-0.32,1.05,
4.257,-1.35,0.25,0.25,-1.02,-0.32,1.05,
4.257,-1.35,0.25,0.25,-0.72,-0.49,1.32,
4.261,-1.30,0.34,0.30,-0.72,-0.49,1.32,
4.262,-1.30,0.34,0.30,-0.50,-0.62,1.42,
4.267,-1.22,0.44,0.34,-0.50,-0.62,1.42,
4.267,-1.22,0.44,0.34,-0.46,-0.63,1.45,
4.272,-1.13,0.54,0.38,-0.46,-0.63,1.45,
4.272,-1.13,0.54,0.38,-0.43,-0.59,1.40,
4.276,-1.03,0.65,0.42,-0.43,-0.59,1.40,
4.276,-1.03,0.65,0.42,-0.37,-0.53,1.32,
4.281,-1.03,0.65,0.42,-0.32,-0.40,1.20,
4.281,-0.92,0.74,0.44,-0.32,-0.40,1.20,
4.286,-0.81,0.80,0.46,-0.32,-0.40,1.20,
4.286,-0.81,0.80,0.46,-0.33,-0.27,1.14,
4.293,-0.71,0.83,0.46,-0.33,-0.27,1.14,
4.293,-0.71,0.83,0.46,-0.36,-0.11,1.07,
4.297,-0.71,0.83,0.46,-0.36,0.04,0.86,
4.298,-0.61,0.83,0.46,-0.36,0.04,0.86,
4.301,-0.61,0.83,0.46,-0.25,0.22,1.09,
4.301,-0.53,0.78,0.45,-0.25,0.22,1.09,
4.305,-0.45,0.68,0.42,-0.25,0.22,1.09,
4.306,-0.45,0.68,0.42,-0.08,0.38,0.90,
4.311,-0.45,0.68,0.42,0.18,0.49,0.79,
4.312,-0.39,0.58,0.39,0.18,0.49,0.79,
4.315,-0.32,0.46,0.34,0.18,0.49,0.79,
4.316,-0.32,0.46,0.34,0.56,0.46,1.10,
4.32,-0.32,0.46,0.34,0.90,0.39,1.12,
4.321,-0.26,0.33,0.28,0.90,0.39,1.12,
4.325,-0.26,0.33,0.28,1.15,0.31,1.28,
4.325,-0.20,0.19,0.20,1.15,0.31,1.28,
4.334,-0.20,0.19,0.20,1.38,0.25,1.40,
4.334,-0.13,0.07,0.11,1.38,0.25,1.40,
4.335,-0.13,0.07,0.11,1.41,0.21,1.36,
4.335,-0.06,-0.02,0.02,1.41,0.21,1.36,
4.34,0.02,-0.08,-0.07,1.41,0.21,1.36,
4.341,0.02,-0.08,-0.07,1.29,0.14,1.21,
4.354,0.11,-0.09,-0.14,1.29,0.14,1.21,
4.355,0.11,-0.09,-0.14,1.01,0.10,1.30,
4.355,0.11,-0.09,-0.14,0.70,0.10,1.39,
4.355,0.20,-0.08,-0.19,0.70,0.10,1.39,
4.355,0.20,-0.08,-0.19,0.44,0.01,1.34,
4.356,0.29,-0.06,-0.21,0.44,0.01,1.34,
4.385,0.35,-0.03,-0.20,0.44,0.01,1.34,
4.385,0.35,-0.03,-0.20,0.21,-0.08,1.18,
4.386,0.40,0.02,-0.18,0.21,-0.08,1.18,
4.386,0.40,0.02,-0.18,-0.03,-0.16,0.73,
4.386,0.40,0.02,-0.18,-0.21,-0.24,0.19,
4.387,0.43,0.10,-0.15,-0.21,-0.24,0.19,
4.387,0.42,0.19,-0.11,-0.21,-0.24,0.19,
4.387,0.42,0.19,-0.11,-0.42,-0.23,-0.12,
4.387,0.42,0.19,-0.11,-0.52,-0.16,-0.35,
4.388,0.40,0.29,-0.07,-0.52,-0.16,-0.35,
4.388,0.35,0.37,-0.02,-0.52,-0.16,-0.35,
4.388,0.35,0.37,-0.02,-0.50,-0.05,-0.66,
4.388,0.27,0.43,0.02,-0.50,-0.05,-0.66,
4.389,0.27,0.43,0.02,-0.28,-0.06,-0.78,
4.392,0.18,0.45,0.04,-0.28,-0.06,-0.78,
4.393,0.18,0.45,0.04,0.25,-0.28,-0.65,
4.399,0.18,0.45,0.04,0.32,-0.34,-0.90,
4.399,0.09,0.43,0.05,0.32,-0.34,-0.90,
4.403,0.09,0.43,0.05,0.22,-0.29,-1.08,
4.404,0.00,0.43,0.04,0.22,-0.29,-1.08,
4.408,-0.07,0.44,0.02,0.22,-0.29,-1.08,
4.408,-0.07,0.44,0.02,0.15,-0.21,-1.11,
4.413,-0.14,0.45,0.01,0.15,-0.21,-1.11,
4.413,-0.14,0.45,0.01,0.10,-0.12,-0.93,
4.417,-0.14,0.45,0.01,0.02,0.01,-0.65,
4.418,-0.19,0.46,-0.00,0.02,0.01,-0.65,
4.422,-0.23,0.44,-0.01,0.02,0.01,-0.65,
4.423,-0.23,0.44,-0.01,-0.03,0.07,-0.37,
4.426,-0.25,0.41,-0.01,-0.03,0.07,-0.37,
4.427,-0.25,0.41,-0.01,-0.14,0.15,-0.21,
4.431,-0.25,0.41,-0.01,-0.27,0.20,-0.08,
4.432,-0.27,0.37,-0.00,-0.27,0.20,-0.08,
4.436,-0.27,0.37,-0.00,-0.43,0.30,0.02,
4.437,-0.27,0.34,0.01,-0.43,0.30,0.02,
4.442,-0.27,0.34,0.01,-0.49,0.33,0.16,
4.443,-0.27,0.30,0.02,-0.49,0.33,0.16,
4.45,-0.26,0.28,0.04,-0.49,0.33,0.16,
4.451,-0.26,0.28,0.04,-0.55,0.42,0.18,
4.451,-0.25,0.27,0.05,-0.55,0.42,0.18,
4.452,-0.25,0.27,0.05,-0.70,0.57,-0.08,
4.455,-0.25,0.29,0.08,-0.70,0.57,-0.08,
4.456,-0.25,0.29,0.08,-0.90,0.79,-0.08,
4.461,-0.25,0.30,0.11,-0.90,0.79,-0.08,
4.461,-0.25,0.30,0.11,-0.41,0.70,0.26,
4.468,-0.24,0.30,0.12,-0.41,0.70,0.26,
4.47,-0.24,0.30,0.12,0.19,0.44,0.80,
4.471,-0.22,0.27,0.10,0.19,0.44,0.80,
4.471,-0.22,0.27,0.10,0.41,0.23,1.12,
4.475,-0.22,0.27,0.10,0.43,0.05,0.93,
4.476,-0.19,0.24,0.07,0.43,0.05,0.93,
4.482,-0.16,0.23,0.04,0.43,0.05,0.93,
4.482,-0.16,0.23,0.04,0.35,-0.02,0.54,
4.485,-0.15,0.24,0.01,0.35,-0.02,0.54,
4.485,-0.15,0.24,0.01,0.04,0.07,0.31,
4.491,-0.14,0.24,-0.01,0.04,0.07,0.31,
4.491,-0.14,0.24,-0.01,-0.10,0.07,0.22,
4.498,-0.14,0.21,-0.02,-0.10,0.07,0.22,
4.498,-0.14,0.21,-0.02,-0.32,0.08,0.19,
4.499,-0.14,0.21,-0.02,-0.54,0.11,0.33,
4.5,-0.14,0.16,-0.02,-0.54,0.11,0.33,
4.505,-0.14,0.16,-0.02,-0.66,0.15,0.74,
4.505,-0.14,0.10,-0.01,-0.66,0.15,0.74,
4.51,-0.14,0.10,-0.01,-0.52,0.09,1.13,
4.511,-0.12,0.03,0.00,-0.52,0.09,1.13,
4.515,-0.12,0.03,0.00,-0.45,0.25,1.18,
4.516,-0.07,-0.06,0.00,-0.45,0.25,1.18,
4.52,-0.01,-0.13,-0.00,-0.45,0.25,1.18,
4.52,-0.01,-0.13,-0.00,-0.36,0.42,0.91,
4.525,-0.01,-0.13,-0.00,-0.17,0.62,0.55,
4.525,0.05,-0.16,-0.01,-0.17,0.62,0.55,
4.528,0.05,-0.16,-0.01,0.20,0.61,0.12,
4.528,0.11,-0.18,-0.02,0.20,0.61,0.12,
4.534,0.14,-0.22,-0.03,0.20,0.61,0.12,
4.535,0.14,-0.22,-0.03,0.28,0.44,-0.47,
4.538,0.13,-0.31,-0.05,0.28,0.44,-0.47,
4.539,0.13,-0.31,-0.05,0.21,0.33,-0.84,
4.543,0.08,-0.44,-0.07,0.21,0.33,-0.84,
4.544,0.08,-0.44,-0.07,0.07,0.21,-1.16,
4.551,0.08,-0.44,-0.07,0.32,-0.09,-1.27,
4.552,0.02,-0.59,-0.08,0.32,-0.09,-1.27,
4.553,-0.04,-0.74,-0.09,0.32,-0.09,-1.27,
4.553,-0.04,-0.74,-0.09,0.26,-0.12,-1.55,
4.558,-0.11,-0.86,-0.11,0.26,-0.12,-1.55,
4.559,-0.11,-0.86,-0.11,-0.06,0.14,-1.91,
4.568,-0.11,-0.86,-0.11,-0.17,0.30,-1.97,
4.569,-0.17,-0.97,-0.10,-0.17,0.30,-1.97,
4.569,-0.24,-1.07,-0.08,-0.17,0.30,-1.97,
4.569,-0.24,-1.07,-0.08,-0.22,0.44,-1.77,
4.572,-0.30,-1.18,-0.05,-0.22,0.44,-1.77,
4.573,-0.30,-1.18,-0.05,-0.34,0.60,-1.56,
4.578,-0.30,-1.18,-0.05,-0.28,0.64,-1.47,
4.578,-0.37,-1.30,-0.03,-0.28,0.64,-1.47,
4.583,-0.45,-1.39,-0.01,-0.28,0.64,-1.47,
4.584,-0.45,-1.39,-0.01,-0.18,0.51,-1.48,
4.587,-0.45,-1.39,-0.01,-0.04,0.34,-1.57,
4.588,-0.53,-1.45,-0.01,-0.04,0.34,-1.57,
4.592,-0.61,-1.45,-0.03,-0.04,0.34,-1.57,
4.593,-0.61,-1.45,-0.03,0.16,0.10,-1.53,
4.597,-0.69,-1.40,-0.07,0.16,0.10,-1.53,
4.597,-0.69,-1.40,-0.07,0.35,-0.10,-1.23,
4.612,-0.76,-1.30,-0.12,0.35,-0.10,-1.23,
4.612,-0.76,-1.30,-0.12,0.49,-0.19,-0.55,
4.612,-0.81,-1.20,-0.19,0.49,-0.19,-0.55,
4.612,-0.81,-1.20,-0.19,0.55,-0.21,0.25,
4.612,-0.84,-1.12,-0.24,0.55,-0.21,0.25,
4.613,-0.84,-1.12,-0.24,0.49,-0.18,0.81,
4.616,-0.85,-1.03,-0.29,0.49,-0.18,0.81,
4.616,-0.85,-1.03,-0.29,0.37,-0.10,1.07,
4.621,-0.85,-0.94,-0.32,0.37,-0.10,1.07,
4.621,-0.85,-0.94,-0.32,0.18,-0.01,1.13,
4.625,-0.83,-0.83,-0.33,0.18,-0.01,1.13,
4.626,-0.83,-0.83,-0.33,-0.11,0.11,1.10,
4.631,-0.83,-0.83,-0.33,-0.37,0.22,1.09,
4.631,-0.80,-0.70,-0.32,-0.37,0.22,1.09,
4.636,-0.80,-0.70,-0.32,-0.61,0.33,1.07,
4.636,-0.77,-0.58,-0.28,-0.61,0.33,1.07,
4.641,-0.77,-0.58,-0.28,-0.74,0.44,0.99,
4.641,-0.72,-0.46,-0.22,-0.74,0.44,0.99,
4.646,-0.72,-0.46,-0.22,-0.84,0.54,0.88,
4.646,-0.67,-0.36,-0.14,-0.84,0.54,0.88,
4.649,-0.67,-0.36,-0.14,-0.84,0.61,0.83,
4.65,-0.62,-0.26,-0.04,-0.84,0.61,0.83,
4.656,-0.58,-0.17,0.05,-0.84,0.61,0.83,
4.656,-0.58,-0.17,0.05,-0.77,0.66,0.78,
4.66,-0.58,-0.17,0.05,-0.65,0.68,0.74,
4.661,-0.53,-0.10,0.15,-0.65,0.68,0.74,
4.666,-0.49,-0.05,0.23,-0.65,0.68,0.74,
4.667,-0.49,-0.05,0.23,-0.46,0.63,0.72,
4.669,-0.45,-0.01,0.30,-0.46,0.63,0.72,
4.67,-0.45,-0.01,0.30,-0.33,0.47,0.61,
4.674,-0.45,-0.01,0.30,-0.12,0.31,0.44,
4.675,-0.42,0.02,0.35,-0.12,0.31,0.44,
4.681,-0.42,0.02,0.35,0.20,0.10,0.34,
4.684,-0.41,0.05,0.38,0.20,0.10,0.34,
4.688,-0.41,0.05,0.38,0.49,-0.05,0.24,
4.688,-0.40,0.07,0.38,0.49,-0.05,0.24,
4.688,-0.39,0.08,0.36,0.49,-0.05,0.24,
4.689,-0.39,0.08,0.36,0.73,-0.10,0.22,
4.693,-0.39,0.09,0.32,0.73,-0.10,0.22,
4.694,-0.39,0.09,0.32,0.91,-0.14,0.23,
4.698,-0.39,0.11,0.27,0.91,-0.14,0.23,
4.699,-0.39,0.11,0.27,1.01,-0.11,0.35,
4.703,-0.40,0.11,0.22,1.01,-0.11,0.35,
4.704,-0.40,0.11,0.22,1.01,-0.09,0.51,
4.709,-0.40,0.10,0.16,1.01,-0.09,0.51,
4.709,-0.40,0.10,0.16,0.96,-0.10,0.60,
4.714,-0.39,0.09,0.10,0.96,-0.10,0.60,
4.715,-0.39,0.09,0.10,0.88,-0.13,0.71,
4.719,-0.39,0.09,0.10,0.76,-0.17,0.66,
4.719,-0.39,0.05,0.06,0.76,-0.17,0.66,
4.723,-0.38,0.01,0.02,0.76,-0.17,0.66,
4.723,-0.38,0.01,0.02,0.65,-0.24,0.63,
4.728,-0.37,-0.03,-0.01,0.65,-0.24,0.63,
4.728,-0.37,-0.03,-0.01,0.55,-0.29,0.55,
4.735,-0.37,-0.03,-0.01,0.46,-0.28,0.45,
4.735,-0.36,-0.08,-0.03,0.46,-0.28,0.45,
4.738,-0.36,-0.08,-0.03,0.35,-0.33,0.48,
4.738,-0.34,-0.12,-0.04,0.35,-0.33,0.48,
4.742,-0.33,-0.15,-0.05,0.35,-0.33,0.48,
4.743,-0.33,-0.15,-0.05,0.25,-0.40,0.47,
4.748,-0.32,-0.17,-0.06,0.25,-0.40,0.47,
4.749,-0.32,-0.17,-0.06,0.18,-0.42,0.44,
4.752,-0.31,-0.20,-0.07,0.18,-0.42,0.44,
4.752,-0.31,-0.20,-0.07,0.21,-0.46,0.54,
4.757,-0.30,-0.23,-0.08,0.21,-0.46,0.54,
4.757,-0.30,-0.23,-0.08,0.19,-0.48,0.57,
4.765,-0.29,-0.26,-0.08,0.19,-0.48,0.57,
4.765,-0.29,-0.26,-0.08,0.11,-0.46,0.54,
4.768,-0.29,-0.28,-0.09,0.11,-0.46,0.54,
4.768,-0.29,-0.28,-0.09,0.10,-0.44,0.69,
4.771,-0.28,-0.30,-0.09,0.10,-0.44,0.69,
4.772,-0.28,-0.30,-0.09,0.11,-0.41,0.71,
4.776,-0.27,-0.31,-0.10,0.11,-0.41,0.71,
4.776,-0.27,-0.31,-0.10,0.12,-0.35,0.71,
4.785,-0.26,-0.31,-0.10,0.12,-0.35,0.71,
4.787,-0.26,-0.31,-0.10,0.12,-0.30,0.63,
4.788,-0.24,-0.31,-0.11,0.12,-0.30,0.63,
4.788,-0.24,-0.31,-0.11,0.15,-0.25,0.64,
4.791,-0.23,-0.31,-0.11,0.15,-0.25,0.64,
4.791,-0.23,-0.31,-0.11,0.22,-0.23,0.73,
4.798,-0.21,-0.32,-0.12,0.22,-0.23,0.73,
4.798,-0.21,-0.32,-0.12,0.28,-0.18,0.74,
4.813,-0.19,-0.33,-0.13,0.28,-0.18,0.74,
4.814,-0.19,-0.33,-0.13,0.36,-0.12,0.60,
4.814,-0.17,-0.34,-0.14,0.36,-0.12,0.60,
4.814,-0.17,-0.34,-0.14,0.43,-0.09,0.35,
4.815,-0.15,-0.34,-0.16,0.43,-0.09,0.35,
4.815,-0.15,-0.34,-0.16,0.43,-0.07,0.29,
4.817,-0.14,-0.35,-0.17,0.43,-0.07,0.29,
4.817,-0.14,-0.35,-0.17,0.44,-0.06,0.36,
4.82,-0.12,-0.38,-0.19,0.44,-0.06,0.36,
4.82,-0.12,-0.38,-0.19,0.46,-0.09,0.40,
4.824,-0.12,-0.42,-0.20,0.46,-0.09,0.40,
4.825,-0.12,-0.42,-0.20,0.47,-0.09,0.43,
4.833,-0.11,-0.46,-0.22,0.47,-0.09,0.43,
4.834,-0.11,-0.46,-0.22,0.46,-0.06,0.38,
4.841,-0.11,-0.46,-0.22,0.44,-0.06,0.41,
4.841,-0.10,-0.50,-0.23,0.44,-0.06,0.41,
4.841,-0.10,-0.52,-0.25,0.44,-0.06,0.41,
4.842,-0.10,-0.52,-0.25,0.43,-0.08,0.43,
4.866,-0.09,-0.53,-0.26,0.43,-0.08,0.43,
4.866,-0.09,-0.53,-0.26,0.44,-0.08,0.51,
4.867,-0.09,-0.53,-0.26,0.44,-0.09,0.65,
4.867,-0.08,-0.52,-0.28,0.44,-0.09,0.65,
4.867,-0.07,-0.51,-0.29,0.44,-0.09,0.65,
4.868,-0.07,-0.51,-0.29,0.37,-0.08,0.80,
4.868,-0.05,-0.50,-0.30,0.37,-0.08,0.80,
4.869,-0.05,-0.50,-0.30,0.29,-0.04,0.91,
4.869,-0.05,-0.50,-0.30,0.21,-0.02,1.02,
4.869,-0.03,-0.49,-0.31,0.21,-0.02,1.02,
4.87,-0.01,-0.47,-0.30,0.21,-0.02,1.02,
4.87,-0.01,-0.47,-0.30,0.11,0.03,1.09,
4.873,0.03,-0.45,-0.29,0.11,0.03,1.09,
4.874,0.03,-0.45,-0.29,-0.02,0.06,1.14,
4.878,0.06,-0.43,-0.27,-0.02,0.06,1.14,
4.878,0.06,-0.43,-0.27,-0.14,0.06,1.14,
4.883,0.10,-0.40,-0.25,-0.14,0.06,1.14,
4.884,0.10,-0.40,-0.25,-0.26,0.07,1.09,
4.888,0.13,-0.36,-0.22,-0.26,0.07,1.09,
4.889,0.13,-0.36,-0.22,-0.32,0.04,1.06,
4.893,0.17,-0.33,-0.18,-0.32,0.04,1.06,
4.893,0.17,-0.33,-0.18,-0.41,0.06,1.03,
4.899,0.21,-0.30,-0.15,-0.41,0.06,1.03,
4.899,0.21,-0.30,-0.15,-0.44,0.03,0.95,
4.903,0.25,-0.28,-0.12,-0.44,0.03,0.95,
4.903,0.25,-0.28,-0.12,-0.46,0.01,0.87,
4.908,0.28,-0.25,-0.08,-0.46,0.01,0.87,
4.908,0.28,-0.25,-0.08,-0.46,-0.01,0.77,
4.912,0.32,-0.23,-0.05,-0.46,-0.01,0.77,
4.913,0.32,-0.23,-0.05,-0.42,-0.02,0.71,
4.917,0.35,-0.21,-0.02,-0.42,-0.02,0.71,
4.918,0.35,-0.21,-0.02,-0.36,-0.05,0.60,
4.923,0.38,-0.18,0.01,-0.36,-0.05,0.60,
4.923,0.38,-0.18,0.01,-0.33,-0.08,0.51,
4.929,0.40,-0.16,0.03,-0.33,-0.08,0.51,
4.929,0.40,-0.16,0.03,-0.27,-0.09,0.41,
4.932,0.43,-0.14,0.04,-0.27,-0.09,0.41,
4.933,0.43,-0.14,0.04,-0.20,-0.09,0.33,
4.937,0.45,-0.13,0.05,-0.20,-0.09,0.33,
4.938,0.45,-0.13,0.05,-0.17,-0.07,0.26,
4.942,0.45,-0.13,0.05,-0.16,-0.05,0.22,
4.942,0.46,-0.13,0.05,-0.16,-0.05,0.22,
4.947,0.46,-0.13,0.05,-0.17,-0.03,0.15,
4.948,0.47,-0.14,0.06,-0.17,-0.03,0.15,
4.951,0.48,-0.16,0.06,-0.17,-0.03,0.15,
4.951,0.48,-0.16,0.06,-0.17,0.01,0.10,
4.957,0.48,-0.16,0.06,-0.16,0.05,0.06,
4.957,0.48,-0.19,0.06,-0.16,0.05,0.06,
4.961,0.48,-0.22,0.06,-0.16,0.05,0.06,
4.962,0.48,-0.22,0.06,-0.11,0.06,0.01,
4.965,0.47,-0.26,0.06,-0.11,0.06,0.01,
4.966,0.47,-0.26,0.06,-0.06,0.10,-0.05,
4.971,0.46,-0.29,0.06,-0.06,0.10,-0.05,
4.971,0.46,-0.29,0.06,-0.01,0.07,-0.09,
4.975,0.46,-0.29,0.06,0.05,0.08,-0.09,
4.976,0.44,-0.32,0.05,0.05,0.08,-0.09,
4.984,0.43,-0.36,0.04,0.05,0.08,-0.09,
4.984,0.43,-0.36,0.04,0.09,0.05,-0.12,
4.985,0.41,-0.38,0.02,0.09,0.05,-0.12,
4.986,0.41,-0.38,0.02,0.12,0.07,-0.15,
4.99,0.38,-0.41,0.01,0.12,0.07,-0.15,
4.991,0.38,-0.41,0.01,0.15,0.09,-0.19,
4.995,0.36,-0.43,-0.01,0.15,0.09,-0.19,
4.995,0.36,-0.43,-0.01,0.18,0.10,-0.20,
5.001,0.33,-0.43,-0.02,0.18,0.10,-0.20,
5.001,0.33,-0.43,-0.02,0.24,0.12,-0.09,
5.005,0.31,-0.43,-0.03,0.24,0.12,-0.09,
5.005,0.31,-0.43,-0.03,0.29,0.16,0.10,
5.01,0.30,-0.43,-0.04,0.29,0.16,0.10,
5.011,0.30,-0.43,-0.04,0.27,0.16,0.35,
5.015,0.29,-0.44,-0.05,0.27,0.16,0.35,
5.017,0.29,-0.44,-0.05,0.21,0.14,0.50,
5.019,0.28,-0.46,-0.06,0.21,0.14,0.50,
5.02,0.28,-0.46,-0.06,0.18,0.11,0.52,
5.025,0.28,-0.46,-0.06,0.16,0.09,0.47,
5.025,0.28,-0.46,-0.06,0.16,0.09,0.47,
5.029,0.28,-0.46,-0.06,0.15,0.03,0.40,
5.03,0.28,-0.45,-0.06,0.15,0.03,0.40,
5.035,0.28,-0.45,-0.06,0.14,-0.00,0.33,
5.035,0.29,-0.42,-0.06,0.14,-0.00,0.33,
5.039,0.30,-0.38,-0.05,0.14,-0.00,0.33,
5.039,0.30,-0.38,-0.05,0.10,-0.03,0.35,
5.044,0.30,-0.38,-0.05,0.06,-0.06,0.34,
5.044,0.31,-0.34,-0.04,0.06,-0.06,0.34,
5.049,0.31,-0.34,-0.04,0.00,-0.07,0.37,
5.05,0.33,-0.31,-0.03,0.00,-0.07,0.37,
5.053,0.34,-0.27,-0.01,0.00,-0.07,0.37,
5.053,0.34,-0.27,-0.01,-0.08,-0.05,0.37,
5.058,0.35,-0.25,0.01,-0.08,-0.05,0.37,
5.058,0.35,-0.25,0.01,-0.17,-0.03,0.32,
5.063,0.35,-0.25,0.01,-0.19,-0.01,0.25,
5.064,0.36,-0.23,0.03,-0.19,-0.01,0.25,
5.067,0.37,-0.22,0.05,-0.19,-0.01,0.25,
5.068,0.37,-0.22,0.05,-0.20,-0.01,0.17,
5.072,0.37,-0.22,0.05,-0.17,0.01,0.09,
5.073,0.37,-0.20,0.07,-0.17,0.01,0.09,
5.077,0.37,-0.20,0.07,-0.13,0.01,0.01,
5.077,0.37,-0.19,0.08,-0.13,0.01,0.01,
5.083,0.37,-0.19,0.08,-0.06,0.03,-0.05,
5.083,0.37,-0.18,0.09,-0.06,0.03,-0.05,
5.108,0.37,-0.18,0.09,0.01,0.02,-0.03,
5.108,0.36,-0.17,0.10,0.01,0.02,-0.03,
5.108,0.36,-0.17,0.10,0.06,0.02,-0.06,
5.109,0.35,-0.17,0.10,0.06,0.02,-0.06,
5.109,0.34,-0.17,0.10,0.06,0.02,-0.06,
5.109,0.34,-0.17,0.10,0.11,0.05,-0.06,
5.11,0.34,-0.17,0.10,0.17,0.07,-0.04,
5.11,0.34,-0.17,0.10,0.20,0.08,-0.03,
5.111,0.33,-0.16,0.10,0.20,0.08,-0.03,
5.111,0.31,-0.17,0.10,0.20,0.08,-0.03,
5.112,0.31,-0.17,0.10,0.20,0.09,0.01,
5.112,0.30,-0.17,0.09,0.20,0.09,0.01,
5.12,0.30,-0.17,0.09,0.17,0.09,0.07,
5.121,0.29,-0.17,0.08,0.17,0.09,0.07,
5.122,0.29,-0.17,0.08,0.13,0.11,0.11,
5.122,0.28,-0.18,0.08,0.13,0.11,0.11,
5.126,0.28,-0.18,0.08,0.12,0.14,0.15,
5.126,0.26,-0.19,0.08,0.12,0.14,0.15,
5.142,0.26,-0.19,0.08,0.11,0.14,0.16,
5.144,0.26,-0.21,0.08,0.11,0.14,0.16,
5.144,0.25,-0.23,0.08,0.11,0.14,0.16,
5.144,0.25,-0.23,0.08,0.11,0.11,0.11,
5.144,0.24,-0.24,0.08,0.11,0.11,0.11,
5.145,0.24,-0.24,0.08,0.14,0.07,0.06,
5.152,0.24,-0.24,0.08,0.16,0.06,0.04,
5.153,0.23,-0.24,0.09,0.16,0.06,0.04,
5.153,0.23,-0.24,0.09,0.16,0.06,0.04,
5.153,0.23,-0.24,0.09,0.18,0.06,-0.00,
5.155,0.23,-0.24,0.09,0.20,0.07,-0.05,
5.156,0.22,-0.23,0.09,0.20,0.07,-0.05,
5.161,0.22,-0.21,0.09,0.20,0.07,-0.05,
5.161,0.22,-0.21,0.09,0.21,0.08,-0.11,
5.167,0.21,-0.20,0.09,0.21,0.08,-0.11,
5.168,0.21,-0.20,0.09,0.26,0.10,-0.14,
5.17,0.21,-0.20,0.09,0.26,0.10,-0.16,
5.17,0.20,-0.18,0.09,0.26,0.10,-0.16,
5.176,0.20,-0.18,0.09,0.28,0.10,-0.14,
5.176,0.18,-0.17,0.09,0.28,0.10,-0.14,
5.18,0.16,-0.16,0.09,0.28,0.10,-0.14,
5.18,0.16,-0.16,0.09,0.30,0.11,-0.11,
5.185,0.16,-0.16,0.09,0.32,0.12,-0.10,
5.185,0.15,-0.16,0.08,0.32,0.12,-0.10,
5.189,0.15,-0.16,0.08,0.34,0.14,-0.09,
5.189,0.13,-0.15,0.07,0.34,0.14,-0.09,
5.194,0.13,-0.15,0.07,0.36,0.15,-0.09,
5.194,0.11,-0.14,0.06,0.36,0.15,-0.09,
5.199,0.09,-0.12,0.05,0.36,0.15,-0.09,
5.199,0.09,-0.12,0.05,0.38,0.17,-0.12,
5.204,0.09,-0.12,0.05,0.37,0.18,-0.15,
5.204,0.07,-0.10,0.04,0.37,0.18,-0.15,
5.208,0.05,-0.07,0.03,0.37,0.18,-0.15,
5.209,0.05,-0.07,0.03,0.39,0.22,-0.13,
5.215,0.03,-0.04,0.02,0.39,0.22,-0.13,
5.216,0.03,-0.04,0.02,0.36,0.24,-0.06,
5.218,0.02,-0.01,0.02,0.36,0.24,-0.06,
5.219,0.02,-0.01,0.02,0.32,0.24,0.03,
5.223,0.00,0.00,0.02,0.32,0.24,0.03,
5.224,0.00,0.00,0.02,0.30,0.22,0.11,
5.228,-0.01,0.00,0.02,0.30,0.22,0.11,
5.228,-0.01,0.00,0.02,0.30,0.19,0.16,
5.233,-0.02,-0.00,0.02,0.30,0.19,0.16,
5.233,-0.02,-0.00,0.02,0.28,0.17,0.19,
5.237,-0.03,-0.00,0.02,0.28,0.17,0.19,
5.237,-0.03,-0.00,0.02,0.27,0.16,0.18,
5.242,-0.04,-0.00,0.01,0.27,0.16,0.18,
5.243,-0.04,-0.00,0.01,0.25,0.15,0.17,
5.248,-0.04,0.01,0.01,0.25,0.15,0.17,
5.248,-0.04,0.01,0.01,0.24,0.16,0.19,
5.252,-0.04,0.01,0.01,0.25,0.16,0.19,
5.252,-0.05,0.02,0.01,0.25,0.16,0.19,
5.257,-0.05,0.03,0.01,0.25,0.16,0.19,
5.257,-0.05,0.03,0.01,0.23,0.13,0.22,
5.262,-0.05,0.03,0.01,0.23,0.11,0.25,
5.263,-0.04,0.05,0.02,0.23,0.11,0.25,
5.267,-0.04,0.06,0.02,0.23,0.11,0.25,
5.267,-0.04,0.06,0.02,0.23,0.09,0.31,
5.272,-0.04,0.06,0.02,0.21,0.08,0.33,
5.273,-0.03,0.07,0.02,0.21,0.08,0.33,
5.277,-0.02,0.09,0.02,0.21,0.08,0.33,
5.278,-0.02,0.09,0.02,0.22,0.05,0.34,
5.282,-0.02,0.09,0.02,0.23,0.02,0.38,
5.283,-0.01,0.10,0.02,0.23,0.02,0.38,
5.287,0.00,0.12,0.02,0.23,0.02,0.38,
5.287,0.00,0.12,0.02,0.21,0.02,0.37,
5.291,0.00,0.12,0.02,0.21,0.00,0.39,
5.291,0.01,0.12,0.02,0.21,0.00,0.39,
5.302,0.01,0.12,0.02,0.17,-0.02,0.41,
5.303,0.02,0.12,0.02,0.17,-0.02,0.41,
5.303,0.02,0.12,0.02,0.12,0.00,0.42,
5.303,0.03,0.11,0.03,0.12,0.00,0.42,
5.307,0.03,0.11,0.03,0.07,0.02,0.41,
5.308,0.04,0.09,0.03,0.07,0.02,0.41,
5.31,0.04,0.09,0.03,0.10,0.04,0.37,
5.311,0.05,0.08,0.04,0.10,0.04,0.37,
5.322,0.06,0.06,0.04,0.10,0.04,0.37,
5.322,0.06,0.06,0.04,0.10,0.03,0.31,
5.322,0.06,0.06,0.04,0.14,-0.00,0.27,
5.323,0.06,0.05,0.04,0.14,-0.00,0.27,
5.326,0.07,0.05,0.03,0.14,-0.00,0.27,
5.326,0.07,0.05,0.03,0.19,-0.04,0.25,
5.347,0.07,0.05,0.03,0.22,-0.06,0.24,
5.347,0.07,0.05,0.03,0.22,-0.06,0.24,
5.347,0.07,0.04,0.02,0.22,-0.06,0.24,
5.348,0.07,0.04,0.02,0.23,-0.08,0.23,
5.348,0.07,0.04,0.02,0.19,-0.08,0.22,
5.348,0.07,0.04,0.01,0.19,-0.08,0.22,
5.348,0.07,0.04,0.01,0.16,-0.07,0.17,
5.349,0.07,0.02,0.00,0.16,-0.07,0.17,
5.349,0.06,0.02,-0.00,0.16,-0.07,0.17,
5.349,0.06,0.02,-0.00,0.10,-0.04,0.12,
5.354,0.06,0.02,-0.00,0.04,-0.01,0.11,
5.355,0.06,0.01,-0.01,0.04,-0.01,0.11,
5.359,0.06,0.01,-0.01,0.02,0.01,0.07,
5.359,0.05,-0.00,-0.01,0.02,0.01,0.07,
5.364,0.04,-0.01,-0.01,0.02,0.01,0.07,
5.365,0.04,-0.01,-0.01,0.04,0.02,0.04,
5.368,0.04,-0.01,-0.01,0.09,0.04,0.02,
5.369,0.04,-0.01,-0.00,0.09,0.04,0.02,
5.374,0.03,-0.01,-0.00,0.09,0.04,0.02,
5.374,0.03,-0.01,-0.00,0.13,0.03,0.03,
5.379,0.02,-0.01,-0.01,0.13,0.03,0.03,
5.379,0.02,-0.01,-0.01,0.16,0.04,0.06,
5.384,0.01,-0.00,-0.01,0.16,0.04,0.06,
5.385,0.01,-0.00,-0.01,0.16,0.04,0.12,
5.389,0.01,-0.00,-0.01,0.14,0.07,0.18,
5.389,-0.00,-0.01,-0.02,0.14,0.07,0.18,
5.394,-0.01,-0.01,-0.02,0.14,0.07,0.18,
5.394,-0.01,-0.01,-0.02,0.13,0.09,0.27,
5.399,-0.02,-0.02,-0.03,0.13,0.09,0.27,
5.399,-0.02,-0.02,-0.03,0.11,0.08,0.32,
5.402,-0.02,-0.02,-0.03,0.12,0.10,0.36,
5.403,-0.02,-0.03,-0.03,0.12,0.10,0.36,
5.407,-0.02,-0.04,-0.03,0.12,0.10,0.36,
5.407,-0.02,-0.04,-0.03,0.10,0.09,0.36,
5.415,-0.02,-0.04,-0.03,0.11,0.07,0.35,
5.415,-0.01,-0.04,-0.03,0.11,0.07,0.35,
5.422,0.00,-0.03,-0.02,0.11,0.07,0.35,
5.423,0.00,-0.03,-0.02,0.11,0.05,0.36,
5.423,0.02,-0.01,-0.02,0.11,0.05,0.36,
5.424,0.02,-0.01,-0.02,0.08,0.03,0.37,
5.427,0.04,-0.00,-0.01,0.08,0.03,0.37,
5.427,0.04,-0.00,-0.01,0.04,0.01,0.37,
5.432,0.05,0.01,-0.00,0.04,0.01,0.37,
5.432,0.05,0.01,-0.00,-0.02,0.03,0.40,
5.437,0.07,0.02,0.01,-0.02,0.03,0.40,
5.437,0.07,0.02,0.01,-0.06,0.05,0.40,
5.441,0.09,0.03,0.02,-0.06,0.05,0.40,
5.441,0.09,0.03,0.02,-0.06,0.05,0.36,
5.446,0.11,0.03,0.03,-0.06,0.05,0.36,
5.447,0.11,0.03,0.03,-0.07,0.06,0.35,
5.451,0.13,0.04,0.04,-0.07,0.06,0.35,
5.452,0.13,0.04,0.04,-0.05,0.05,0.33,
5.456,0.14,0.04,0.05,-0.05,0.05,0.33,
5.456,0.14,0.04,0.05,-0.01,0.03,0.31,
5.46,0.15,0.05,0.05,-0.01,0.03,0.31,
5.461,0.15,0.05,0.05,0.05,0.03,0.28,
5.466,0.15,0.05,0.05,0.09,0.01,0.21,
5.467,0.15,0.05,0.05,0.09,0.01,0.21,
5.471,0.16,0.06,0.05,0.09,0.01,0.21,
5.471,0.16,0.06,0.05,0.15,0.02,0.16,
5.476,0.16,0.07,0.05,0.15,0.02,0.16,
5.477,0.16,0.07,0.05,0.17,0.05,0.09,
5.482,0.15,0.08,0.04,0.17,0.05,0.09,
5.483,0.15,0.08,0.04,0.19,0.06,0.08,
5.486,0.15,0.08,0.04,0.19,0.08,0.10,
5.486,0.15,0.09,0.04,0.19,0.08,0.10,
5.491,0.15,0.09,0.04,0.19,0.12,0.13,
5.491,0.15,0.10,0.03,0.19,0.12,0.13,
5.495,0.14,0.10,0.03,0.19,0.12,0.13,
5.495,0.14,0.10,0.03,0.16,0.11,0.12,
5.5,0.14,0.10,0.03,0.23,0.12,0.16,
5.501,0.13,0.11,0.02,0.23,0.12,0.16,
5.505,0.13,0.11,0.02,0.23,0.12,0.21,
5.506,0.13,0.12,0.02,0.23,0.12,0.21,
5.509,0.13,0.12,0.02,0.23,0.12,0.26,
5.51,0.13,0.13,0.02,0.23,0.12,0.26,
5.52,0.14,0.14,0.01,0.23,0.12,0.26,
5.521,0.14,0.14,0.01,0.22,0.10,0.31,
5.521,0.14,0.15,0.01,0.22,0.10,0.31,
5.521,0.14,0.15,0.01,0.20,0.09,0.34,
5.524,0.15,0.15,0.01,0.20,0.09,0.34,
5.524,0.15,0.15,0.01,0.16,0.07,0.39,
5.532,0.15,0.15,0.01,0.13,0.03,0.39,
5.532,0.16,0.15,0.01,0.13,0.03,0.39,
5.54,0.18,0.15,0.01,0.13,0.03,0.39,
5.541,0.18,0.15,0.01,0.11,0.06,0.44,
5.541,0.20,0.14,0.01,0.11,0.06,0.44,
5.541,0.20,0.14,0.01,0.09,0.05,0.45,
5.545,0.20,0.14,0.01,0.07,0.04,0.43,
5.545,0.22,0.14,0.01,0.07,0.04,0.43,
5.55,0.22,0.14,0.01,0.04,0.05,0.43,
5.55,0.24,0.15,0.01,0.04,0.05,0.43,
5.554,0.24,0.15,0.01,0.01,0.08,0.46,
5.555,0.26,0.17,0.01,0.01,0.08,0.46,
5.559,0.29,0.19,0.02,0.01,0.08,0.46,
5.559,0.29,0.19,0.02,0.01,0.09,0.42,
5.563,0.29,0.19,0.02,0.02,0.10,0.42,
5.563,0.31,0.21,0.02,0.02,0.10,0.42,
5.568,0.31,0.21,0.02,0.01,0.09,0.41,
5.568,0.34,0.23,0.02,0.01,0.09,0.41,
5.588,0.36,0.24,0.03,0.01,0.09,0.41,
5.589,0.36,0.24,0.03,-0.01,0.08,0.35,
5.589,0.36,0.24,0.03,-0.03,0.06,0.24,
5.589,0.38,0.24,0.04,-0.03,0.06,0.24,
5.59,0.38,0.24,0.04,0.00,0.05,0.15,
5.59,0.39,0.25,0.04,0.00,0.05,0.15,
5.59,0.41,0.25,0.04,0.00,0.05,0.15,
5.591,0.41,0.25,0.04,0.06,0.05,0.05,
5.592,0.41,0.25,0.04,0.13,0.06,-0.01,
5.592,0.42,0.26,0.04,0.13,0.06,-0.01,
5.597,0.42,0.28,0.03,0.13,0.06,-0.01,
5.598,0.42,0.28,0.03,0.17,0.04,0.02,
5.601,0.42,0.28,0.03,0.21,0.03,0.03,
5.602,0.43,0.29,0.01,0.21,0.03,0.03,
5.606,0.43,0.31,-0.01,0.21,0.03,0.03,
5.607,0.43,0.31,-0.01,0.26,0.04,0.08,
5.612,0.44,0.32,-0.03,0.26,0.04,0.08,
5.614,0.44,0.32,-0.03,0.27,0.04,0.21,
5.616,0.44,0.32,-0.03,0.26,0.05,0.29,
5.616,0.44,0.33,-0.05,0.26,0.05,0.29,
5.621,0.45,0.32,-0.06,0.26,0.05,0.29,
5.622,0.45,0.32,-0.06,0.25,0.03,0.30,
5.626,0.45,0.32,-0.07,0.25,0.03,0.30,
5.627,0.45,0.32,-0.07,0.24,0.05,0.26,
5.632,0.45,0.32,-0.07,0.30,-0.01,-0.00,
5.633,0.46,0.33,-0.08,0.30,-0.01,-0.00,
5.636,0.46,0.33,-0.08,0.25,0.03,0.05,
5.636,0.47,0.36,-0.08,0.25,0.03,0.05,
5.641,0.48,0.39,-0.08,0.25,0.03,0.05,
5.641,0.48,0.39,-0.08,0.25,0.01,0.03,
5.646,0.48,0.39,-0.08,0.17,0.04,0.15,
5.646,0.50,0.42,-0.07,0.17,0.04,0.15,
5.651,0.51,0.43,-0.06,0.17,0.04,0.15,
5.652,0.51,0.43,-0.06,0.05,0.04,0.13,
5.657,0.51,0.43,-0.06,0.07,-0.00,0.09,
5.658,0.52,0.44,-0.05,0.07,-0.00,0.09,
5.661,0.52,0.44,-0.04,0.07,-0.00,0.09,
5.661,0.52,0.44,-0.04,-0.03,0.07,0.24,
5.666,0.52,0.44,-0.04,0.09,-0.03,0.15,
5.667,0.52,0.43,-0.03,0.09,-0.03,0.15,
5.672,0.52,0.43,-0.03,0.01,0.04,0.34,
5.673,0.53,0.43,-0.02,0.01,0.04,0.34,
5.676,0.53,0.43,-0.02,-0.03,0.03,0.33,
5.676,0.53,0.41,-0.02,-0.03,0.03,0.33,
5.681,0.53,0.41,-0.02,-0.03,0.03,0.33,
5.681,0.53,0.41,-0.02,0.07,-0.07,0.14,
5.684,0.53,0.41,-0.02,0.03,-0.04,0.17,
5.685,0.53,0.42,-0.03,0.03,-0.04,0.17,
5.689,0.52,0.43,-0.03,0.03,-0.04,0.17,
5.689,0.52,0.43,-0.03,0.03,-0.03,0.08,
5.694,0.50,0.44,-0.04,0.03,-0.03,0.08,
5.694,0.50,0.44,-0.04,0.12,-0.15,-0.13,
5.699,0.48,0.45,-0.05,0.12,-0.15,-0.13,
5.699,0.48,0.45,-0.05,-0.02,-0.07,-0.06,
5.704,0.46,0.44,-0.05,-0.02,-0.07,-0.06,
5.704,0.46,0.44,-0.05,-0.06,-0.04,-0.11,
5.708,0.43,0.43,-0.04,-0.06,-0.04,-0.11,
5.708,0.43,0.43,-0.04,-0.07,-0.06,-0.25,
5.713,0.40,0.42,-0.04,-0.07,-0.06,-0.25,
5.713,0.40,0.42,-0.04,0.06,-0.20,-0.39,
5.718,0.37,0.42,-0.04,0.06,-0.20,-0.39,
5.718,0.37,0.42,-0.04,-0.03,-0.07,-0.27,
5.724,0.37,0.42,-0.04,-0.01,-0.05,-0.34,
5.724,0.33,0.42,-0.04,-0.01,-0.05,-0.34,
5.728,0.30,0.41,-0.04,-0.01,-0.05,-0.34,
5.728,0.30,0.41,-0.04,-0.01,-0.01,-0.43,
5.733,0.26,0.41,-0.03,-0.01,-0.01,-0.43,
5.734,0.26,0.41,-0.03,0.01,0.01,-0.41,
5.739,0.22,0.41,-0.03,0.01,0.01,-0.41,
5.74,0.22,0.41,-0.03,0.01,-0.02,-0.36,
5.742,0.19,0.41,-0.03,0.01,-0.02,-0.36,
5.743,0.19,0.41,-0.03,0.06,-0.05,-0.29,
5.752,0.17,0.40,-0.03,0.06,-0.05,-0.29,
5.752,0.17,0.40,-0.03,0.12,-0.07,-0.22,
5.753,0.15,0.38,-0.02,0.12,-0.07,-0.22,
5.753,0.15,0.38,-0.02,0.13,-0.09,-0.09,
5.757,0.13,0.36,-0.02,0.13,-0.09,-0.09,
5.758,0.13,0.36,-0.02,0.08,-0.09,0.06,
5.763,0.13,0.36,-0.02,0.02,-0.06,0.17,
5.764,0.12,0.33,-0.03,0.02,-0.06,0.17,
5.767,0.12,0.31,-0.02,0.02,-0.06,0.17,
5.767,0.12,0.31,-0.02,-0.05,-0.04,0.25,
5.771,0.13,0.30,-0.02,-0.05,-0.04,0.25,
5.772,0.13,0.30,-0.02,-0.14,0.02,0.28,
5.776,0.13,0.30,-0.02,-0.23,0.02,0.23,
5.777,0.14,0.31,-0.02,-0.23,0.02,0.23,
5.781,0.14,0.31,-0.02,-0.24,-0.01,0.08,
5.782,0.15,0.34,-0.02,-0.24,-0.01,0.08,
5.787,0.15,0.34,-0.02,-0.00,-0.12,-0.06,
5.787,0.16,0.38,-0.03,-0.00,-0.12,-0.06,
5.792,0.16,0.38,-0.03,0.20,-0.15,-0.05,
5.792,0.18,0.43,-0.04,0.20,-0.15,-0.05,
5.797,0.19,0.48,-0.05,0.20,-0.15,-0.05,
5.797,0.19,0.48,-0.05,0.26,-0.10,0.08,
5.801,0.19,0.48,-0.05,0.31,-0.08,0.14,
5.802,0.21,0.50,-0.06,0.31,-0.08,0.14,
5.806,0.21,0.50,-0.06,0.32,-0.07,0.11,
5.807,0.22,0.49,-0.06,0.32,-0.07,0.11,
5.812,0.22,0.48,-0.07,0.32,-0.07,0.11,
5.812,0.22,0.48,-0.07,0.29,-0.06,-0.03,
5.83,0.22,0.48,-0.07,0.22,-0.00,-0.13,
5.831,0.22,0.46,-0.07,0.22,-0.00,-0.13,
5.831,0.22,0.45,-0.07,0.22,-0.00,-0.13,
5.831,0.22,0.45,-0.07,0.14,0.09,-0.18,
5.832,0.22,0.45,-0.07,-0.00,0.22,-0.09,
5.832,0.21,0.43,-0.07,-0.00,0.22,-0.09,
5.832,0.21,0.43,-0.07,-0.18,0.36,0.03,
5.833,0.20,0.40,-0.06,-0.18,0.36,0.03,
5.835,0.20,0.40,-0.06,-0.20,0.42,0.09,
5.836,0.18,0.36,-0.05,-0.20,0.42,0.09,
5.839,0.18,0.36,-0.05,-0.16,0.43,0.09,
5.84,0.16,0.33,-0.04,-0.16,0.43,0.09,
5.845,0.15,0.30,-0.03,-0.16,0.43,0.09,
5.845,0.15,0.30,-0.03,-0.10,0.37,0.02,
5.849,0.13,0.30,-0.03,-0.10,0.37,0.02,
5.85,0.13,0.30,-0.03,-0.02,0.28,-0.06,
5.855,0.11,0.31,-0.03,-0.02,0.28,-0.06,
5.855,0.11,0.31,-0.03,0.08,0.18,-0.11,
5.86,0.11,0.31,-0.03,0.14,0.09,-0.10,
5.86,0.10,0.33,-0.03,0.14,0.09,-0.10,
5.866,0.10,0.33,-0.03,0.18,0.02,-0.13,
5.867,0.09,0.34,-0.03,0.18,0.02,-0.13,
5.868,0.08,0.36,-0.03,0.18,0.02,-0.13,
5.869,0.08,0.36,-0.03,0.22,-0.06,-0.19,
5.873,0.07,0.38,-0.03,0.22,-0.06,-0.19,
5.874,0.07,0.38,-0.03,0.22,-0.07,-0.22,
5.879,0.05,0.40,-0.03,0.22,-0.07,-0.22,
5.879,0.05,0.40,-0.03,0.21,-0.07,-0.26,
5.886,0.04,0.43,-0.03,0.21,-0.07,-0.26,
5.886,0.04,0.43,-0.03,0.15,-0.07,-0.21,
5.889,0.04,0.44,-0.03,0.15,-0.07,-0.21,
5.892,0.04,0.44,-0.03,0.08,-0.06,-0.17,
5.893,0.03,0.45,-0.03,0.08,-0.06,-0.17,
5.893,0.03,0.45,-0.03,-0.03,-0.02,-0.14,
5.898,0.01,0.45,-0.02,-0.03,-0.02,-0.14,
5.899,0.01,0.45,-0.02,0.01,-0.10,-0.15,
5.902,0.00,0.44,-0.02,0.01,-0.10,-0.15,
5.903,0.00,0.44,-0.02,0.34,-0.29,-0.15,
5.907,0.00,0.44,-0.02,0.13,-0.11,-0.03,
5.908,-0.00,0.44,-0.04,0.13,-0.11,-0.03,
5.913,-0.01,0.43,-0.04,0.13,-0.11,-0.03,
5.913,-0.01,0.43,-0.04,0.02,0.06,0.05,
5.917,-0.01,0.43,-0.04,-0.04,0.20,0.06,
5.917,-0.01,0.41,-0.04,-0.04,0.20,0.06,
5.922,-0.02,0.41,-0.04,-0.04,0.20,0.06,
5.922,-0.02,0.41,-0.04,0.04,0.17,0.04,
5.927,-0.02,0.41,-0.04,0.40,-0.06,0.12,
5.927,-0.02,0.41,-0.04,0.40,-0.06,0.12,
5.933,-0.02,0.42,-0.06,0.40,-0.06,0.12,
5.933,-0.02,0.42,-0.06,0.21,0.09,0.26,
5.938,-0.01,0.42,-0.07,0.21,0.09,0.26,
5.938,-0.01,0.42,-0.07,0.17,0.18,0.35,
5.942,-0.01,0.42,-0.07,0.16,0.22,0.41,
5.943,-0.00,0.41,-0.08,0.16,0.22,0.41,
5.948,0.01,0.40,-0.08,0.16,0.22,0.41,
5.949,0.01,0.40,-0.08,0.14,0.20,0.44,
5.953,0.02,0.39,-0.09,0.14,0.20,0.44,
5.954,0.02,0.39,-0.09,0.16,0.14,0.41,
5.957,0.04,0.40,-0.10,0.16,0.14,0.41,
5.957,0.04,0.40,-0.10,0.41,-0.12,0.38,
5.961,0.05,0.41,-0.11,0.41,-0.12,0.38,
5.961,0.05,0.41,-0.11,0.47,-0.22,0.38,
5.965,0.06,0.42,-0.14,0.47,-0.22,0.38,
5.966,0.06,0.42,-0.14,0.38,-0.23,0.41,
5.97,0.08,0.42,-0.16,0.38,-0.23,0.41,
5.97,0.08,0.42,-0.16,0.30,-0.24,0.51,
5.976,0.08,0.42,-0.16,0.08,-0.21,0.56,
5.977,0.09,0.39,-0.16,0.08,-0.21,0.56,
5.98,0.11,0.36,-0.16,0.08,-0.21,0.56,
5.981,0.11,0.36,-0.16,-0.07,-0.19,0.44,
5.985,0.13,0.35,-0.16,-0.07,-0.19,0.44,
5.986,0.13,0.35,-0.16,-0.07,-0.20,0.30,
5.99,0.15,0.34,-0.15,-0.07,-0.20,0.30,
5.99,0.15,0.34,-0.15,-0.00,-0.23,0.33,
5.995,0.15,0.34,-0.15,0.07,-0.18,0.59,
5.995,0.17,0.34,-0.15,0.07,-0.18,0.59,
6.0,0.17,0.34,-0.15,0.16,-0.13,0.75,
6.0,0.19,0.32,-0.14,0.16,-0.13,0.75,
6.005,0.22,0.31,-0.15,0.16,-0.13,0.75,
6.005,0.22,0.31,-0.15,0.46,-0.08,0.62,
6.009,0.22,0.31,-0.15,0.98,-0.05,0.42,
6.009,0.24,0.33,-0.15,0.98,-0.05,0.42,
6.015,0.24,0.33,-0.15,1.61,-0.02,0.56,
6.015,0.26,0.38,-0.18,1.61,-0.02,0.56,
6.019,0.28,0.43,-0.24,1.61,-0.02,0.56,
6.019,0.28,0.43,-0.24,2.25,-0.06,0.89,
6.024,0.28,0.43,-0.24,2.64,-0.03,1.05,
6.025,0.30,0.44,-0.32,2.64,-0.03,1.05,
6.031,0.32,0.42,-0.42,2.64,-0.03,1.05,
6.032,0.32,0.42,-0.42,2.91,-0.01,1.01,
6.034,0.33,0.40,-0.54,2.91,-0.01,1.01,
6.034,0.33,0.40,-0.54,2.89,0.00,0.86,
6.039,0.33,0.36,-0.67,2.89,0.00,0.86,
6.039,0.33,0.36,-0.67,2.59,0.01,0.73,
6.044,0.33,0.36,-0.67,2.14,-0.00,0.64,
6.045,0.33,0.31,-0.79,2.14,-0.00,0.64,
6.048,0.33,0.24,-0.90,2.14,-0.00,0.64,
6.049,0.33,0.24,-0.90,1.42,0.03,0.55,
6.054,0.33,0.24,-0.90,0.72,0.06,0.46,
6.054,0.33,0.16,-0.97,0.72,0.06,0.46,
6.08,0.33,0.06,-1.01,0.72,0.06,0.46,
6.08,0.33,0.06,-1.01,0.22,0.02,0.22,
6.081,0.33,0.06,-1.01,-0.15,-0.07,-0.17,
6.081,0.32,-0.03,-1.02,-0.15,-0.07,-0.17,
6.082,0.31,-0.07,-1.01,-0.15,-0.07,-0.17,
6.082,0.31,-0.07,-1.01,-1.71,-0.06,-4.56,
6.082,0.14,0.14,-0.93,-1.71,-0.06,-4.56,
6.083,0.14,0.14,-0.93,-5.56,1.65,-9.40,
6.083,-0.15,0.36,-0.69,-5.56,1.65,-9.40,
6.084,-0.15,0.36,-0.69,-6.60,2.02,-3.75,
6.084,-0.36,0.20,-0.41,-6.60,2.02,-3.75,
6.085,-0.36,0.20,-0.41,-4.50,1.00,-2.42,
6.089,-0.52,-0.02,-0.22,-4.50,1.00,-2.42,
6.09,-0.52,-0.02,-0.22,-1.89,-0.12,-2.35,
6.092,-0.52,-0.02,-0.22,-0.67,-0.77,-1.51,
6.093,-0.68,-0.21,-0.14,-0.67,-0.77,-1.51,
6.104,-0.79,-0.36,-0.12,-0.67,-0.77,-1.51,
6.105,-0.79,-0.36,-0.12,-0.48,-0.95,-1.43,
6.105,-0.87,-0.42,-0.12,-0.48,-0.95,-1.43,
6.106,-0.87,-0.42,-0.12,-0.50,-0.81,-1.00,
6.107,-0.92,-0.43,-0.13,-0.50,-0.81,-1.00,
6.107,-0.92,-0.43,-0.13,-0.36,-0.53,-0.24,
6.112,-0.91,-0.40,-0.14,-0.36,-0.53,-0.24,
6.112,-0.91,-0.40,-0.14,-0.10,-0.19,0.48,
6.12,-0.87,-0.33,-0.15,-0.10,-0.19,0.48,
6.121,-0.87,-0.33,-0.15,0.04,0.24,0.80,
6.121,-0.78,-0.22,-0.17,0.04,0.24,0.80,
6.121,-0.78,-0.22,-0.17,-0.02,0.66,0.93,
6.126,-0.68,-0.08,-0.18,-0.02,0.66,0.93,
6.127,-0.68,-0.08,-0.18,-0.19,1.05,1.05,
6.131,-0.56,0.04,-0.17,-0.19,1.05,1.05,
6.132,-0.56,0.04,-0.17,-0.44,1.37,1.06,
6.137,-0.56,0.04,-0.17,-0.40,1.44,0.99,
6.137,-0.43,0.12,-0.14,-0.40,1.44,0.99,
6.141,-0.32,0.17,-0.11,-0.40,1.44,0.99,
6.141,-0.32,0.17,-0.11,-0.03,1.08,0.65,
6.146,-0.24,0.16,-0.10,-0.03,1.08,0.65,
6.146,-0.24,0.16,-0.10,0.31,0.58,0.36,
6.151,-0.24,0.16,-0.10,0.36,0.26,0.09,
6.151,-0.19,0.10,-0.11,0.36,0.26,0.09,
6.155,-0.19,0.10,-0.11,0.39,-0.01,-0.20,
6.155,-0.17,0.02,-0.12,0.39,-0.01,-0.20,
6.16,-0.17,-0.08,-0.14,0.39,-0.01,-0.20,
6.16,-0.17,-0.08,-0.14,0.37,-0.17,-0.54,
6.167,-0.20,-0.18,-0.16,0.37,-0.17,-0.54,
6.167,-0.20,-0.18,-0.16,0.34,-0.31,-0.83,
