time,ax,ay,az,atotal
0.01671314239501953,0.27,-0.23,-0.53,0.63
0.019776105880737305,0.07,-0.18,-0.25,0.31
0.022274017333984375,-0.15,0.04,-0.05,0.16
0.029160022735595703,-0.27,0.13,-0.02,0.3
0.03915119171142578,-0.23,0.08,-0.03,0.24
0.04931211471557617,-0.12,0.02,-0.08,0.14
0.05912613868713379,-0.01,0.03,-0.22,0.22
0.06914210319519043,0.08,0.02,-0.19,0.2
0.08407831192016602,0.09,0.04,0.31,0.32
0.08965206146240234,-0.23,-0.02,-0.34,0.41
0.11033511161804199,-0.07,-0.1,-0.35,0.37
0.11345815658569336,0.08,-0.24,0.11,0.27
0.11962509155273438,-0.07,-0.08,-0.09,0.13
0.1292731761932373,-0.05,0.05,-0.09,0.11
0.13958501815795898,0.1,-0.05,0.22,0.24
0.1497972011566162,0.08,-0.08,0.32,0.33
0.16489505767822266,-0.02,-0.05,0.13,0.14
0.1696310043334961,-0.01,-0.06,0.08,0.1
0.18028712272644043,0.07,-0.09,0.16,0.19
0.19488811492919922,0.09,-0.08,0.09,0.15
0.20921611785888672,0.1,-0.1,0.1,0.17
0.2116260528564453,0.1,-0.15,0.28,0.33
0.21986627578735352,0.05,-0.11,0.36,0.37
0.22972416877746582,0.01,-0.05,0.32,0.32
0.24017715454101562,-0.03,-0.03,0.26,0.26
0.2498021125793457,-0.13,-0.04,0.24,0.27
0.2650911808013916,-0.24,-0.07,0.23,0.33
0.2700011730194092,-0.29,-0.06,0.24,0.38
0.2803182601928711,-0.29,-0.05,0.34,0.44
0.29512500762939453,-0.32,-0.04,0.46,0.56
0.3101081848144531,-0.37,-0.01,0.56,0.67
0.31261730194091797,-0.43,-0.01,0.65,0.77
0.3201291561126709,-0.44,0.0,0.6,0.74
0.33008813858032227,-0.42,0.02,0.53,0.67
0.34017109870910645,-0.42,-0.05,0.72,0.83
0.3501920700073242,-0.45,-0.02,0.91,1.01
0.36088132858276367,-0.48,-0.06,0.94,1.05
0.37409400939941406,-0.49,-0.16,0.91,1.04
0.3803071975708008,-0.39,-0.18,0.84,0.94
0.39592719078063965,-0.28,-0.16,0.81,0.87
0.40865325927734375,-0.2,-0.23,0.85,0.9
0.41135501861572266,-0.11,-0.31,0.73,0.8
0.4204421043395996,0.08,-0.28,0.48,0.56
0.43042802810668945,0.29,-0.33,0.52,0.68
0.44048023223876953,0.53,-0.42,0.62,0.91
0.4506382942199707,0.75,-0.4,0.43,0.95
0.46050500869750977,0.86,-0.32,0.12,0.92
0.47060203552246094,0.85,-0.32,0.02,0.9
0.4853551387786865,0.79,-0.5,0.12,0.94
0.4906129837036133,0.69,-0.65,0.12,0.95
0.510322093963623,0.57,-0.57,0.07,0.8
0.5131840705871582,0.4,-0.3,-0.05,0.5
0.5207653045654297,0.05,-0.19,0.16,0.25
0.530656099319458,-0.52,-0.19,0.03,0.55
0.5408482551574707,-0.94,-0.1,-0.27,0.98
0.5513300895690918,-0.92,0.11,0.57,1.08
0.5659351348876953,-0.9,0.33,1.21,1.54
0.570885181427002,-0.94,0.18,0.96,1.35
0.5849912166595459,-0.84,-0.22,0.88,1.23
0.5910582542419434,-0.71,-0.47,0.67,1.08
0.6110100746154785,-0.45,-0.38,0.28,0.65
0.6140832901000977,-0.06,-0.32,0.57,0.65
0.6212639808654785,0.25,-0.36,0.71,0.83
0.6311581134796143,0.39,-0.52,0.57,0.86
0.6414082050323486,0.35,-0.75,0.63,1.04
0.6551651954650879,0.38,-0.61,0.3,0.77
0.6619210243225098,0.56,-0.42,0.13,0.71
0.6751222610473633,0.73,-0.32,-0.33,0.86
0.6812500953674316,0.67,-0.07,-1.35,1.5
0.6970562934875488,0.5,-0.27,-1.26,1.38
0.709414005279541,0.29,-0.38,-0.89,1.01
0.7120952606201172,0.06,-0.02,-0.8,0.8
0.721412181854248,-0.24,0.25,-0.55,0.65
0.7314431667327881,-0.73,0.3,-0.44,0.9
0.7417292594909668,-0.96,0.18,-0.22,1.0
0.7520921230316162,-0.72,0.02,0.44,0.84
0.7616500854492188,-0.14,0.08,0.75,0.76
0.7757081985473633,0.26,0.17,-0.01,0.31
0.781541109085083,0.41,-0.14,-0.14,0.45
0.7921490669250488,0.59,-0.43,0.37,0.81
0.8148880004882812,0.92,-0.22,0.5,1.06
0.8178472518920898,1.19,0.24,0.45,1.29
0.8217530250549316,1.07,0.26,0.35,1.15
0.8378081321716309,0.6,0.04,0.49,0.77
0.8418393135070801,-0.04,-0.09,1.13,1.13
0.8527741432189941,-0.17,0.18,1.76,1.77
0.8664851188659668,0.57,0.77,1.94,2.16
0.8720240592956543,1.58,0.96,1.38,2.3
0.8862991333007812,1.98,0.93,0.45,2.23
0.8918941020965576,1.55,0.83,0.04,1.75
0.9116921424865723,0.72,1.34,0.22,1.53
0.9143891334533691,-0.07,2.13,0.27,2.14
0.9221563339233398,-0.56,2.32,0.49,2.43
0.9320430755615234,-0.5,2.15,0.64,2.29
0.9422502517700195,0.13,2.09,0.69,2.2
0.9521303176879883,0.87,2.16,0.89,2.49
0.9666752815246582,1.44,2.3,1.5,3.1
0.9721150398254395,2.01,2.24,2.63,3.99
0.9829683303833008,2.35,2.16,4.17,5.25
0.9922981262207031,2.58,2.54,5.58,6.65
1.0151982307434082,2.66,3.01,6.88,7.96
1.0182433128356934,2.31,3.35,7.79,8.78
1.022400140762329,1.75,3.87,8.33,9.35
1.037635326385498,1.79,4.93,8.33,9.84
1.042445182800293,2.87,6.72,8.34,11.08
1.0525171756744385,3.1,8.81,8.82,12.84
1.067014217376709,2.74,10.37,9.01,14.0
1.0726101398468018,3.34,10.6,10.68,15.41
1.0866413116455078,4.18,9.51,13.39,16.94
1.092628002166748,5.93,8.2,12.31,15.93
1.1144251823425293,9.18,7.44,5.43,13.0
1.1171932220458984,11.43,8.08,-2.95,14.3
1.1227402687072754,11.24,9.09,-10.61,17.93
1.1326191425323486,8.76,8.06,-14.21,18.53
1.142958164215088,6.02,5.77,-10.52,13.42
1.1528041362762451,4.76,4.93,-2.72,7.37
1.1673321723937988,4.25,5.4,4.41,8.16
1.172896146774292,3.06,5.98,7.74,10.24
1.1836271286010742,1.62,5.44,6.76,8.82
1.1929640769958496,0.95,3.72,5.29,6.53
1.2159011363983154,0.89,1.76,5.14,5.5
1.2195301055908203,0.3,0.3,5.43,5.44
1.2229342460632324,-1.07,-0.37,5.12,5.24
1.2377610206604004,-2.15,-0.74,4.37,4.92
1.2439701557159424,-2.18,-1.08,3.45,4.22
1.2572450637817383,-1.4,-1.29,2.58,3.2
1.263200283050537,-0.49,-1.3,1.66,2.16
1.2781929969787598,0.27,-1.27,0.69,1.47
1.2832751274108887,0.88,-1.49,-0.8,1.9
1.2955732345581055,1.37,-2.05,-2.65,3.61
1.3114352226257324,1.71,-2.7,-3.95,5.08
1.3140020370483398,1.85,-3.19,-4.47,5.79
1.3236422538757324,1.46,-3.41,-5.01,6.23
1.3333981037139893,0.43,-3.31,-5.92,6.79
1.3432941436767578,-0.97,-3.02,-6.83,7.53
1.3575739860534668,-2.23,-2.42,-7.25,7.96
1.3636081218719482,-3.32,-1.36,-7.13,7.98
1.3741061687469482,-4.43,-0.13,-7.02,8.3
1.3883070945739746,-5.37,1.24,-7.42,9.24
1.394463062286377,-6.08,2.73,-7.66,10.15
1.4121360778808594,-6.5,4.35,-7.54,10.86
1.4147000312805176,-6.24,5.48,-7.39,11.11
1.4237980842590332,-5.54,4.6,-8.11,10.84
1.4337220191955566,-4.52,2.35,-11.33,12.42
1.4437260627746582,-3.3,-1.47,-11.33,11.89
1.4544572830200195,-2.78,-6.55,-7.96,10.67
1.468595027923584,-3.06,-10.0,-6.26,12.18
1.4745051860809326,-3.52,-10.74,-6.68,13.12
1.4876811504364014,-4.39,-9.62,-7.1,12.73
1.4946942329406738,-5.38,-7.47,-7.16,11.66
1.515768051147461,-2.9,-0.82,-0.85,3.13
1.5187692642211914,8.11,24.33,16.97,30.75
1.52390718460083,6.74,34.09,-9.81,36.1
1.5340852737426758,-0.15,6.15,-20.83,21.71
1.544241189956665,-3.98,-10.71,-13.7,17.83
1.553941249847412,-11.89,-8.03,-14.54,20.42
1.5677790641784668,-15.9,-2.13,-11.76,19.89
1.5749621391296387,-12.41,3.5,-4.29,13.58
1.588292121887207,-8.17,8.98,-0.61,12.15
1.5942871570587158,-6.55,8.94,0.81,11.11
1.6170992851257324,-5.74,4.63,-1.47,7.51
1.6208021640777588,-4.46,-0.25,-3.48,5.66
1.6242971420288086,-1.64,-3.25,-3.41,4.98
1.6344380378723145,1.58,-2.81,-4.37,5.43
1.6443562507629395,4.0,-0.44,-6.29,7.46
1.6547181606292725,5.39,0.96,-6.09,8.18
1.6683781147003174,5.28,0.3,-4.16,6.72
1.6753101348876953,3.42,-1.44,-2.44,4.44
1.6882541179656982,1.27,-2.25,-0.89,2.73
1.6946511268615723,-0.04,-1.47,0.81,1.67
1.7195992469787598,-0.71,-0.11,2.24,2.35
1.7225732803344727,-0.83,0.79,2.81,3.03
1.7250843048095703,-0.54,0.82,2.22,2.42
1.7346563339233398,-0.03,0.1,1.34,1.34
1.7449162006378174,0.76,-0.64,1.01,1.41
1.75486421585083,1.58,-0.8,0.71,1.9
1.764686107635498,1.85,-0.54,-0.02,1.92
1.7755742073059082,1.71,-0.22,-0.22,1.73
1.7886810302734375,1.51,-0.09,0.45,1.57
1.7955892086029053,1.02,0.03,0.99,1.42
1.8170990943908691,0.47,0.1,1.26,1.34
1.8200221061706543,0.24,0.41,1.36,1.44
1.8249211311340332,0.46,0.95,1.18,1.58
1.835125207901001,0.95,1.34,0.98,1.91
1.8451931476593018,1.56,1.26,1.34,2.41
1.8552460670471191,2.22,0.64,2.21,3.19
1.8689522743225098,2.83,-0.44,2.9,4.07
1.876061201095581,3.37,-1.17,2.71,4.47
1.8888001441955566,3.42,-0.42,2.32,4.15
1.8951911926269531,2.81,1.72,2.63,4.21
1.9200372695922852,2.11,3.69,3.95,5.8
1.9238343238830566,1.54,4.54,5.33,7.16
1.926241159439087,1.48,4.87,6.24,8.05
1.9354801177978516,1.95,5.49,6.93,9.05
1.945181131362915,3.05,6.47,7.63,10.45
1.9556021690368652,5.31,7.9,7.35,12.02
1.9653573036193848,8.28,9.85,7.24,14.76
1.975785255432129,9.05,12.31,6.97,16.79
1.9894390106201172,9.82,14.53,7.95,19.25
1.9965882301330566,11.12,15.06,9.62,21.04
2.0164291858673096,11.1,13.58,9.49,19.94
2.019256114959717,9.87,10.87,7.34,16.41
2.0255980491638184,9.7,7.97,4.05,13.19
2.035952091217041,9.22,6.1,-2.26,11.28
2.0455970764160156,6.78,4.87,-13.98,16.28
2.055694103240967,3.37,3.33,-22.07,22.57
2.065546989440918,1.77,3.06,-11.72,12.24
2.0762710571289062,1.62,4.67,2.25,5.43
2.086597204208374,0.58,5.88,10.75,12.26
2.0995192527770996,0.1,5.14,9.79,11.05
2.1143622398376465,0.48,1.62,4.89,5.17
2.11708402633667,0.31,-1.39,1.88,2.35
2.125936985015869,-0.25,-3.22,1.01,3.38
2.1360971927642822,-1.47,-3.81,2.79,4.94
2.146160125732422,-2.49,-3.48,4.8,6.43
2.156038284301758,-2.24,-2.87,5.68,6.74
2.170039176940918,-1.38,-2.14,5.17,5.76
2.1762123107910156,-0.81,-1.57,2.96,3.44
2.186636209487915,-0.66,-1.55,-0.21,1.69
2.200078010559082,-0.7,-1.95,-2.64,3.35
2.2159810066223145,-0.84,-2.38,-3.85,4.6
2.218975067138672,-1.1,-2.76,-4.5,5.39
2.2262120246887207,-1.51,-2.98,-5.15,6.13
2.2364020347595215,-2.13,-2.3,-6.21,6.95
2.2463691234588623,-2.95,0.01,-7.85,8.38
2.2564151287078857,-3.86,3.68,-8.32,9.88
2.2709550857543945,-5.2,6.58,-6.23,10.44
2.2766079902648926,-6.7,6.42,-5.2,10.63
2.286823272705078,-7.49,4.92,-7.21,11.5
2.300516128540039,-8.14,3.99,-8.24,12.25
2.316127300262451,-8.31,4.4,-11.75,15.04
2.319200038909912,-6.39,3.07,-15.33,16.88
2.3265511989593506,-3.78,-3.01,-13.55,14.38
2.33669114112854,-2.75,-9.58,-8.28,12.95
2.3469252586364746,-2.83,-11.01,-7.15,13.42
2.35677433013916,-3.58,-9.15,-8.54,13.01
2.367518186569214,-4.81,-7.44,-8.74,12.44
2.376974105834961,-5.61,-5.51,-9.18,12.08
2.3906540870666504,-5.39,-2.61,-8.34,10.26
2.397675037384033,-0.57,8.06,7.75,11.19
2.420222282409668,8.89,34.14,29.31,45.86
2.4229812622070312,3.8,25.23,-8.74,26.96
2.4272689819335938,-3.48,-4.47,-26.8,27.39
2.4368929862976074,-10.11,-20.04,-17.32,28.35
2.4471261501312256,-12.33,-13.3,-7.48,19.61
2.457346200942993,-8.96,1.27,-4.04,9.91
2.467740058898926,-5.88,10.52,-6.48,13.68
2.4772610664367676,-4.22,12.71,-5.4,14.43
2.491157054901123,-3.82,7.88,-1.39,8.86
2.4970932006835938,-4.31,1.31,-0.32,4.51
2.5173141956329346,-4.76,-2.83,-2.32,6.0
2.5199761390686035,-3.17,-3.9,-3.46,6.1
2.527165174484253,-0.41,-2.17,-3.76,4.36
2.537698268890381,1.56,0.59,-4.31,4.62
2.547403335571289,2.56,2.08,-4.28,5.4
2.5576322078704834,2.82,1.38,-3.5,4.7
2.571441173553467,2.24,-0.55,-2.16,3.16
2.577512264251709,1.05,-1.82,-0.57,2.17
2.591508150100708,-0.15,-1.45,0.7,1.61
2.597492218017578,-0.77,-0.01,1.43,1.62
2.617025136947632,-0.78,1.07,1.88,2.29
2.619659185409546,-0.5,0.93,1.76,2.05
2.6275041103363037,-0.17,0.02,0.94,0.95
2.637618064880371,0.3,-0.66,0.22,0.75
2.6480371952056885,0.86,-0.58,-0.08,1.04
2.657914161682129,1.33,-0.08,-0.54,1.43
2.671718120574951,1.56,0.48,-0.85,1.84
2.677863121032715,1.47,1.03,-0.74,1.94
2.6885311603546143,1.2,1.17,-0.27,1.69
2.7032690048217773,0.93,0.86,0.67,1.43
2.7173500061035156,0.92,0.29,1.87,2.1
2.720017194747925,1.42,-0.11,2.94,3.26
2.7278690338134766,2.29,-0.13,3.01,3.78
2.7380380630493164,3.16,0.25,2.93,4.31
2.7482411861419678,3.8,0.95,3.54,5.27
2.7590322494506836,3.95,1.88,4.42,6.21
2.772069215774536,3.78,2.87,5.48,7.24
2.778207302093506,3.92,3.74,7.63,9.35
2.7922611236572266,4.15,4.45,9.3,11.11
2.7980942726135254,4.27,5.07,9.13,11.28
2.817251205444336,4.56,6.09,9.55,12.21
2.8200759887695312,5.27,8.22,9.77,13.81
2.828160285949707,7.86,12.04,9.46,17.21
2.838560104370117,9.89,16.93,9.07,21.6
2.848968029022217,10.17,20.08,7.74,23.8
2.8607351779937744,7.78,17.67,4.6,19.84
2.868350028991699,6.26,10.73,0.72,12.44
2.879002094268799,7.01,5.81,-7.07,11.52
2.889259099960327,6.9,4.4,-15.71,17.71
2.90246319770813,6.44,4.47,-12.31,14.59
2.91925311088562,7.29,7.03,1.5,10.23
2.921969175338745,6.32,8.1,11.72,15.58
2.928439140319824,3.67,5.2,6.27,8.93
2.938777208328247,2.9,1.14,0.46,3.14
2.9487552642822266,2.65,-1.98,1.04,3.46
2.9588379859924316,1.16,-3.26,3.08,4.63
2.969442129135132,-0.61,-2.79,4.11,5.0
2.9833812713623047,-1.11,-2.02,4.24,4.82
2.9896531105041504,-0.6,-1.59,4.19,4.52
3.002622127532959,-0.22,-1.63,3.52,3.88
3.017487049102783,-0.51,-2.25,1.7,2.86
3.0201570987701416,-0.86,-3.05,-0.47,3.2
3.028524160385132,-0.86,-3.54,-1.97,4.14
3.0390472412109375,-0.8,-3.49,-3.09,4.72
3.049300193786621,-0.93,-3.01,-3.95,5.05
3.059108257293701,-1.36,-2.26,-4.01,4.79
3.0729551315307617,-2.01,-1.09,-4.41,4.96
3.07899808883667,-2.56,0.51,-5.55,6.13
3.0898661613464355,-3.36,2.1,-7.68,8.64
3.1032543182373047,-4.68,3.49,-8.95,10.68
3.1191892623901367,-6.14,4.39,-7.07,10.34
3.1218202114105225,-7.22,4.7,-5.53,10.23
3.1291191577911377,-7.63,4.29,-5.86,10.53
3.1393332481384277,-7.43,3.18,-6.15,10.15
3.1492021083831787,-6.08,1.66,-8.08,10.24
3.1594343185424805,-3.12,-0.78,-10.67,11.14
3.170147180557251,-1.09,-4.45,-11.49,12.36
3.179232120513916,-1.64,-7.84,-9.52,12.44
3.1934962272644043,-3.08,-8.38,-6.5,11.04
3.199495315551758,-4.49,-6.49,-5.05,9.36
3.2232213020324707,-5.82,-4.63,-5.18,9.06
3.2261672019958496,-6.48,-3.17,-6.38,9.63
3.2295570373535156,-5.94,-1.66,-8.62,10.59
3.239718198776245,-5.42,-0.36,-10.47,11.79
3.249641180038452,1.78,5.77,11.73,13.19
3.259913206100464,8.51,24.07,11.73,28.09
3.269904136657715,5.52,16.42,-34.6,38.69
3.2815351486206055,2.43,1.58,-26.45,26.6
3.2939131259918213,-10.72,-3.42,-15.69,19.3
3.299859046936035,-23.13,-4.13,-8.9,25.12
3.3234031200408936,-20.4,-0.3,5.27,21.07
3.326486110687256,-15.49,7.32,1.73,17.21
3.3298892974853516,-11.98,9.37,3.41,15.58
3.3403940200805664,-8.08,6.24,4.36,11.1
3.3500351905822754,-4.8,1.63,0.46,5.09
3.360051155090332,-2.63,-1.56,-2.16,3.74
3.3708481788635254,1.22,-2.05,-6.76,7.16
3.3847131729125977,7.45,-2.22,-11.57,13.93
3.390979290008545,12.05,-2.59,-12.89,17.83
3.404611110687256,11.32,-2.26,-9.07,14.68
3.42098331451416,5.94,-1.9,-4.49,7.68
3.4236512184143066,0.77,-1.59,-0.77,1.92
3.4303393363952637,-2.3,-0.73,3.99,4.66
3.4404871463775635,-3.88,0.54,6.8,7.84
3.450442314147949,-4.21,1.77,6.03,7.56
3.4602560997009277,-2.61,1.83,3.31,4.59
3.4712982177734375,0.22,0.54,0.61,0.84
3.4853873252868652,2.29,-0.4,-1.92,3.01
3.4914002418518066,3.02,-0.29,-3.38,4.54
3.5043911933898926,3.53,0.15,-2.46,4.3
3.51865816116333,3.0,0.43,-0.31,3.04
3.52132511138916,1.64,1.45,2.03,2.98
3.530855178833008,0.62,2.67,4.78,5.51
3.5406501293182373,0.22,2.25,7.01,7.36
3.5506930351257324,1.03,0.26,7.74,7.81
3.566037178039551,2.42,-0.94,7.14,7.59
3.570808172225952,3.55,-0.3,5.77,6.78
3.5817270278930664,3.89,1.59,5.63,7.02
3.595231056213379,3.62,3.58,7.09,8.72
3.6014461517333984,3.41,4.89,9.05,10.83
3.62416410446167,3.45,5.78,9.84,11.92
3.627023220062256,5.37,7.52,9.01,12.9
3.6309332847595215,8.05,11.41,8.55,16.37
3.641170024871826,8.41,15.83,9.14,20.12
3.6514101028442383,10.62,18.42,10.77,23.83
3.6611862182617188,12.85,18.26,12.16,25.42
3.6722192764282227,12.73,15.27,11.06,22.74
3.6848230361938477,9.85,10.7,9.76,17.51
3.691920280456543,7.26,6.52,6.65,11.8
3.705018997192383,5.72,4.72,-5.42,9.18
3.721874237060547,3.4,3.65,-21.99,22.54
3.724525213241577,2.03,2.28,-16.82,17.09
3.7312891483306885,2.45,3.54,2.63,5.04
3.7414870262145996,2.53,6.28,14.82,16.29
3.751403331756592,2.28,6.62,11.97,13.86
3.7610421180725098,2.45,2.17,4.0,5.16
3.775689125061035,1.68,-1.15,0.13,2.04
3.7814340591430664,0.38,-2.95,-0.25,2.98
3.796856164932251,-1.15,-3.85,2.2,4.58
3.801415205001831,-2.38,-4.06,3.5,5.86
3.821967124938965,-2.78,-3.59,2.58,5.22
3.8255841732025146,-2.53,-2.51,2.11,4.14
3.8316822052001953,-2.34,-1.69,1.75,3.37
3.841818332672119,-2.86,-1.48,-0.33,3.23
3.8523781299591064,-3.74,-1.55,-3.3,5.22
3.8663411140441895,-4.07,-1.45,-4.85,6.49
3.872528076171875,-4.0,-0.87,-4.76,6.27
3.88169527053833,-4.77,0.59,-6.53,8.1
3.8923792839050293,-5.75,2.19,-9.75,11.52
3.90592098236084,-5.84,4.17,-8.94,11.46
3.9211010932922363,-5.92,5.06,-10.32,12.92
3.9238619804382324,-6.52,2.93,-12.71,14.58
3.9317831993103027,-7.18,0.19,-9.32,11.76
3.9418342113494873,-6.55,-0.68,-6.73,9.41
3.9521121978759766,-5.17,-0.29,-7.0,8.7
3.961940288543701,-4.93,-0.73,-7.85,9.29
3.9728102684020996,-5.36,-4.76,-8.5,11.11
3.9864981174468994,-5.71,-9.41,-8.13,13.68
3.9928791522979736,-6.13,-10.67,-7.87,14.6
4.006316184997559,-6.05,-6.87,-8.27,12.33
4.019675254821777,-0.72,3.81,-0.92,3.98
4.0223002433776855,4.52,17.91,-6.24,19.49
4.029166221618652,4.69,17.83,-5.9,19.35
4.039216995239258,-3.94,15.59,-16.28,22.88
4.049683094024658,-7.96,4.16,-12.22,15.16
4.059900283813477,-7.77,-4.1,-11.37,14.36
4.07501220703125,-8.34,-6.4,-8.55,13.55
4.08004903793335,-8.11,-2.88,-8.9,12.38
4.089421272277832,-7.47,2.41,-7.88,11.12
4.104568004608154,-6.2,6.28,-0.57,8.84
4.10965633392334,-5.46,7.45,1.24,9.31
4.120538234710693,-5.5,4.59,-2.76,7.67
4.129702091217041,-3.52,0.85,-4.1,5.47
4.139631271362305,0.26,-1.34,-2.85,3.16
4.1497039794921875,2.19,-1.9,-3.11,4.25
4.159646034240723,2.47,-1.22,-4.43,5.21
4.16991114616394,2.96,-0.21,-3.88,4.88
4.184790134429932,2.75,0.36,-2.55,3.76
4.190537214279175,1.73,0.33,-1.58,2.36
4.203551292419434,1.03,-0.19,-0.27,1.08
4.209866046905518,0.67,-0.48,0.9,1.22
4.220341205596924,0.5,-0.21,1.09,1.21
4.23021125793457,0.74,0.24,0.69,1.03
4.239965200424194,1.11,0.45,0.17,1.2
4.25003719329834,1.32,0.37,-0.17,1.38
4.2656402587890625,1.65,0.24,-0.17,1.67
4.26996111869812,1.89,0.27,0.03,1.9
4.285072326660156,1.69,0.53,0.27,1.79
4.290121078491211,1.54,0.9,0.75,1.93
4.303624153137207,1.42,1.04,1.64,2.4
4.310955047607422,0.82,0.49,2.86,3.01
4.323285102844238,0.49,-0.37,3.71,3.76
4.330242156982422,0.66,-0.7,3.91,4.02
4.340233325958252,0.74,-0.25,3.35,3.43
4.349585056304932,1.05,0.46,3.47,3.65
4.360756158828735,1.61,0.87,3.97,4.37
4.374101161956787,2.0,1.45,3.67,4.42
4.380636215209961,2.24,2.58,3.25,4.71
4.394582271575928,2.3,3.65,3.35,5.46
4.400376319885254,2.42,4.33,4.35,6.59
4.416342258453369,2.75,4.86,5.75,8.01
4.42848014831543,3.33,5.16,7.42,9.63
4.4310691356658936,4.14,5.14,8.76,10.96
4.440850257873535,4.84,5.42,9.56,12.0
4.450680255889893,6.17,6.87,9.65,13.35
4.460840225219727,8.45,9.22,9.91,15.95
4.47074818611145,7.83,11.59,10.99,17.78
4.4810731410980225,6.4,12.59,10.63,17.67
4.495438098907471,8.01,11.91,11.6,18.45
4.501705169677734,11.57,9.52,11.49,18.88
4.511474132537842,13.4,9.3,-1.99,16.43
4.524689197540283,13.37,10.64,-13.87,22.0
4.530895233154297,9.48,9.4,-18.6,22.89
4.541297197341919,5.98,7.57,-12.56,15.83
4.550915241241455,4.9,6.07,-0.57,7.82
4.5609681606292725,4.3,5.24,6.47,9.37
4.575055122375488,2.32,4.74,6.08,8.05
4.581017017364502,0.19,3.18,2.63,4.13
4.605605125427246,-0.24,-0.84,4.19,4.28
4.612992286682129,-0.95,-1.59,5.56,5.86
4.629918098449707,-1.76,-1.87,4.79,5.43
4.632644176483154,-1.67,-2.08,3.96,4.77
4.640372276306152,-1.06,-1.94,3.49,4.13
4.650515079498291,-0.9,-1.58,2.25,2.89
4.660350322723389,-1.12,-1.54,0.57,1.98
4.670462131500244,-1.27,-2.0,-0.7,2.47
4.6859002113342285,-1.25,-2.58,-1.97,3.47
4.690630197525024,-1.11,-2.88,-3.45,4.62
4.701264142990112,-1.15,-2.84,-4.98,5.84
4.711443185806274,-1.54,-2.52,-6.44,7.08
4.730906009674072,-2.14,-1.9,-7.04,7.59
4.734211206436157,-2.75,-0.57,-7.12,7.65
4.740783214569092,-3.54,1.75,-7.63,8.59
4.750692129135132,-4.88,3.98,-9.34,11.26
4.760732173919678,-6.16,5.1,-9.92,12.74
4.771450042724609,-6.62,5.35,-7.73,11.49
4.7854790687561035,-6.7,5.2,-5.74,10.24
4.791684150695801,-6.58,4.19,-5.54,9.56
4.800912141799927,-5.53,2.32,-7.71,9.76
4.816423177719116,-3.41,-1.15,-10.09,10.71
4.829493045806885,-1.52,-5.96,-11.29,12.85
4.832600116729736,-1.06,-9.52,-10.42,14.15
4.841154098510742,-2.25,-8.86,-8.88,12.74
4.8510942459106445,-4.41,-5.69,-8.17,10.88
4.860976219177246,-6.54,-3.43,-7.93,10.83
4.8720293045043945,-7.93,-2.52,-7.66,11.3
4.885718107223511,-7.65,-1.56,-6.08,9.89
4.892061233520508,-1.13,6.96,12.93,14.72
4.905452251434326,5.57,24.69,20.26,32.42
4.911703109741211,-0.86,17.13,-16.41,23.73
4.936737060546875,-4.5,-1.4,-21.99,22.48
4.940446138381958,-7.5,-10.79,-12.01,17.8
4.94296407699585,-11.56,-7.57,-8.63,16.29
4.951397180557251,-11.61,-1.58,-6.3,13.3
4.961531162261963,-8.28,3.35,-8.66,12.44
4.971558094024658,-5.51,6.99,-5.33,10.37
4.981950283050537,-4.38,6.73,2.57,8.43
4.9956231117248535,-4.38,3.23,0.4,5.45
5.002285003662109,-3.86,-0.19,-3.79,5.41
5.012079238891602,-1.51,-1.26,-3.66,4.15
5.032939195632935,1.4,-0.36,-3.81,4.07
5.035579204559326,3.56,0.38,-5.57,6.62
5.04172420501709,4.83,0.19,-6.43,8.04
5.051928997039795,4.87,-0.58,-5.43,7.31
5.061614990234375,3.34,-1.22,-3.68,5.11
5.072174072265625,1.32,-1.08,-1.77,2.45
5.082590103149414,-0.22,-0.33,0.44,0.59
5.091827154159546,-1.21,0.43,2.21,2.55
5.105947017669678,-1.76,0.79,2.91,3.49
5.112023115158081,-1.62,0.77,2.59,3.15
5.135679244995117,-0.81,0.53,1.63,1.89
5.139322280883789,0.17,0.28,0.47,0.57
5.141873121261597,1.02,0.19,-0.69,1.24
5.152100086212158,1.65,0.2,-1.87,2.5
5.1619651317596436,2.2,0.13,-2.28,3.17
5.176420211791992,2.45,0.2,-1.66,2.96
5.182223320007324,2.04,0.66,-1.19,2.45
5.192775249481201,1.82,1.12,-0.51,2.19
5.202962160110474,1.93,1.43,0.89,2.56
5.217127323150635,1.88,1.28,2.49,3.37
5.230610132217407,1.91,0.25,3.84,4.29
5.2333550453186035,2.55,-1.24,5.07,5.8
5.2423930168151855,3.18,-1.85,5.14,6.32
5.252453327178955,3.06,-0.78,4.26,5.3
5.262193202972412,2.44,1.32,3.97,4.84
5.272442102432251,1.58,2.98,4.61,5.71
5.283185005187988,0.61,3.88,5.25,6.55
5.297883033752441,0.15,4.15,5.86,7.18
5.303340196609497,0.6,4.17,6.5,7.74
5.317315101623535,1.8,4.32,6.83,8.27
5.331010103225708,3.11,4.89,6.79,8.92
5.333700180053711,5.7,7.1,7.09,11.53
5.343090057373047,8.24,9.58,7.62,14.75
5.352906227111816,7.96,11.95,8.14,16.5
5.3640570640563965,8.06,13.06,9.37,17.98
5.37284517288208,9.27,12.11,11.57,19.14
5.3833231925964355,10.59,9.89,12.05,18.84
5.398283004760742,12.11,7.15,5.91,15.25
5.403223037719727,11.95,6.39,-8.17,15.82
5.418032169342041,10.71,6.17,-18.75,22.45
5.431128025054932,7.6,6.36,-17.0,19.67
5.433791160583496,5.45,8.07,-2.85,10.14
5.442990303039551,3.98,8.93,7.45,12.29
5.453120231628418,2.33,7.69,6.28,10.19
5.463420152664185,1.35,4.64,1.85,5.17
5.477126121520996,1.07,1.71,1.15,2.32
5.4832940101623535,0.29,-0.21,2.98,3.0
5.498998165130615,-0.95,-0.94,4.41,4.6
5.503180980682373,-1.7,-1.32,4.6,5.07
5.513632297515869,-1.45,-1.9,4.59,5.17
5.5371012687683105,-0.73,-2.35,4.6,5.21
5.539772987365723,-0.3,-2.49,3.66,4.43
5.543347120285034,-0.26,-2.52,1.53,2.95
5.553422212600708,-0.02,-2.57,-0.13,2.57
5.563544273376465,0.61,-2.48,-1.32,2.87
5.574453115463257,1.23,-2.29,-3.12,4.06
5.58751106262207,1.28,-2.22,-4.27,4.97
5.593638181686401,0.44,-2.1,-4.79,5.24
5.607754230499268,-0.76,-1.64,-5.39,5.68
5.613836288452148,-1.74,-0.83,-6.03,6.33
5.632171154022217,-2.52,0.44,-6.52,7.0
5.6348631381988525,-3.17,2.36,-6.8,7.86
5.64379620552063,-4.2,4.02,-8.11,9.97
5.653809070587158,-5.6,3.98,-9.77,11.94
5.664053201675415,-6.7,3.04,-9.82,12.27
5.6738221645355225,-7.05,2.68,-8.21,11.14
5.683948040008545,-6.45,2.51,-7.6,10.27
5.699279308319092,-5.29,1.19,-9.64,11.06
5.704028129577637,-3.73,-2.04,-11.3,12.07
5.718656063079834,-2.76,-6.39,-11.14,13.13
5.7320122718811035,-3.09,-9.0,-10.83,14.41
5.7346742153167725,-4.36,-7.67,-9.96,13.3
5.74395227432251,-5.07,-3.36,-6.94,9.22
5.75412917137146,-1.96,5.98,0.99,6.37
5.764238119125366,-2.85,16.82,-1.91,17.16
5.77431321144104,-7.14,11.31,-11.73,17.79
5.784114122390747,-7.4,-1.41,-8.94,11.69
5.7987470626831055,-9.05,-6.86,-8.9,14.42
5.804311275482178,-9.89,-6.02,-7.95,14.04
5.818647146224976,-8.31,-0.28,-3.96,9.2
5.835575103759766,-6.94,6.57,0.89,9.59
5.83819317817688,-7.97,9.46,-0.13,12.37
5.844455242156982,-6.9,5.93,-4.7,10.24
5.854405164718628,-2.68,0.24,-4.97,5.65
5.864586114883423,1.9,-2.85,-2.98,4.54
5.874590158462524,2.77,-2.96,-4.54,6.08
5.885349273681641,2.41,-1.64,-6.71,7.31
5.894474029541016,3.47,0.0,-5.64,6.62
5.908543109893799,3.06,1.0,-4.03,5.15
5.9147419929504395,1.39,0.98,-2.85,3.31
5.938525199890137,0.19,0.25,-1.28,1.31
5.94119930267334,-0.68,0.08,-0.07,0.68
5.944603204727173,-1.41,0.63,0.46,1.61
5.9547200202941895,-1.49,0.96,0.84,1.96
5.9646992683410645,-1.01,0.7,0.69,1.4
5.974956035614014,-0.37,0.35,0.3,0.59
5.98538613319397,0.46,0.08,-0.06,0.47
5.994855165481567,1.07,-0.15,-0.53,1.2
6.0089991092681885,1.17,0.0,-0.57,1.3
6.015073299407959,1.08,0.42,-0.32,1.2
6.034922122955322,0.93,0.65,0.38,1.19
6.038784980773926,0.78,0.49,1.54,1.79
6.04489803314209,0.9,0.34,2.56,2.73
6.054825305938721,1.36,0.38,3.11,3.41
6.065888166427612,1.86,0.52,3.19,3.72
6.080841064453125,2.49,0.48,3.42,4.25
6.08567214012146,3.02,0.49,3.48,4.63
6.100149154663086,3.14,0.65,3.65,4.85
6.105172157287598,3.08,1.19,4.55,5.62
6.119955062866211,3.24,2.09,5.98,7.11
6.134097099304199,3.52,2.88,7.23,8.54
6.136760234832764,3.96,3.45,8.11,9.66
6.145093202590942,4.65,4.15,9.16,11.07
6.15535831451416,5.23,5.23,10.22,12.61
6.165197134017944,5.76,6.84,10.17,13.54
6.175981044769287,7.75,9.79,8.99,15.38
6.189835071563721,8.57,13.49,9.94,18.82
6.19671106338501,7.6,16.07,9.29,20.05
6.2091381549835205,8.23,15.58,9.57,20.05
6.216253280639648,10.62,11.75,11.12,19.35
6.238361120223999,11.86,8.46,4.94,15.38
6.241326332092285,10.73,8.3,-7.83,15.66
6.245444297790527,7.68,7.64,-16.01,19.33
6.255795001983643,4.91,6.77,-11.5,14.21
6.265599250793457,4.36,6.82,1.86,8.3
6.275848150253296,4.25,7.22,10.72,13.6
6.286511182785034,3.06,6.06,9.13,11.37
6.296428203582764,1.95,2.85,3.78,5.11
6.3096842765808105,1.61,-0.28,1.47,2.19
6.316381216049194,1.14,-2.46,1.97,3.35
6.338862180709839,0.25,-3.26,3.44,4.74
6.342588186264038,-0.15,-3.14,4.03,5.11
6.346089124679565,0.47,-2.62,3.36,4.28
6.356150150299072,1.26,-1.9,1.34,2.64
6.366641998291016,1.45,-1.41,-1.28,2.39
6.3762571811676025,1.05,-1.55,-3.8,4.23
6.386804103851318,0.55,-2.06,-5.42,5.82
6.3961181640625,0.1,-2.51,-5.67,6.2
6.410377025604248,-0.49,-2.59,-5.38,5.99
6.416712284088135,-1.54,-2.2,-5.23,5.87
6.440042018890381,-3.0,-1.04,-6.32,7.07
6.443734169006348,-4.06,1.19,-7.14,8.29
6.446162223815918,-4.42,3.46,-6.7,8.74
6.456686019897461,-4.72,4.92,-7.81,10.36
6.466616153717041,-5.69,5.6,-10.52,13.2
6.4822142124176025,-6.19,5.35,-9.98,12.9
6.486522197723389,-6.78,4.65,-9.22,12.35
6.497168064117432,-6.32,2.24,-11.19,13.04
6.50722599029541,-3.11,-2.04,-12.71,13.24
6.520620107650757,0.51,-5.9,-13.49,14.73
6.537048101425171,0.47,-7.6,-13.69,15.66
6.539679050445557,-2.72,-6.73,-12.12,14.12
6.546670198440552,-5.72,-4.86,-10.09,12.57
6.556947231292725,-8.25,-3.3,-9.53,13.02
6.566752195358276,-9.74,-1.64,-9.5,13.7
6.5768280029296875,-6.61,4.06,2.71,8.21
6.587515115737915,2.19,24.22,24.76,34.7
6.6017842292785645,1.7,21.78,-7.83,23.2
6.607804298400879,-2.48,-2.07,-24.57,24.78
6.6169562339782715,-6.7,-12.96,-18.89,23.86
6.637118101119995,-11.02,-6.98,-11.28,17.24
6.6397809982299805,-11.64,0.74,-0.18,11.66
6.646979331970215,-8.06,5.96,4.24,10.88
6.65706205368042,-6.92,9.17,0.13,11.48
6.66728401184082,-8.22,6.73,-1.17,10.68
6.677218198776245,-8.02,1.47,-1.55,8.29
6.6907830238342285,-4.66,-1.52,-3.26,5.88
6.697887182235718,0.19,-2.05,-3.97,4.47
6.7114951610565186,3.24,-0.43,-5.12,6.07
6.717554092407227,4.46,0.91,-5.88,7.43
6.740796089172363,5.05,0.17,-5.96,7.81
6.743871212005615,4.64,-1.49,-5.16,7.09
6.7473061084747314,2.94,-1.82,-3.59,4.98
6.757622241973877,1.12,-0.73,-1.45,1.97
6.767323017120361,-0.07,0.35,0.8,0.87
6.777788162231445,-0.99,0.85,2.3,2.64
6.787463188171387,-1.72,0.83,2.63,3.25
6.798089981079102,-1.62,0.47,2.43,2.95
6.812125205993652,-0.6,0.13,1.7,1.8
6.817434310913086,0.39,0.21,0.4,0.59
6.841942310333252,1.14,0.37,-0.62,1.34
6.844770193099976,1.7,0.37,-0.87,1.94
6.847691059112549,1.98,0.6,-0.51,2.13
6.8579301834106445,2.0,1.26,0.25,2.37
6.867763042449951,1.81,1.93,1.02,2.83
6.877651214599609,1.46,2.3,2.09,3.43
6.891637325286865,1.58,1.99,3.32,4.18
6.8978142738342285,2.66,0.63,4.83,5.54
6.908477306365967,4.11,-1.22,5.71,7.14
6.921516180038452,5.13,-2.29,5.04,7.54
6.9385762214660645,5.85,-1.49,4.08,7.28
6.941187143325806,6.14,1.15,4.19,7.52
6.947885990142822,5.56,3.78,4.91,8.32
6.957892179489136,4.87,5.15,6.16,9.39
6.967911243438721,4.82,5.72,7.91,10.88
6.978078126907349,5.45,6.08,9.31,12.38
6.988725185394287,6.63,6.89,9.64,13.57
7.003498077392578,8.27,8.49,8.76,14.73
7.0089051723480225,9.69,9.95,8.81,16.44
7.01894998550415,10.34,11.37,8.03,17.33
7.03890323638916,12.8,11.94,8.21,19.33
7.0415871143341064,14.41,10.73,8.05,19.68
7.048511981964111,10.54,9.59,-1.23,14.3
7.058480262756348,6.88,8.49,-14.26,17.96
7.068369150161743,4.39,6.61,-19.26,20.83
7.0785813331604,3.82,6.28,-8.78,11.45
7.092307090759277,3.42,8.29,4.79,10.16
7.0984601974487305,2.22,8.77,10.08,13.54
7.1138551235198975,1.11,6.01,5.93,8.51
7.118551254272461,0.34,2.28,2.39,3.32
7.138455152511597,-0.24,-0.58,2.22,2.3
7.141446113586426,-1.12,-2.24,4.06,4.77
7.148696184158325,-2.6,-2.72,5.73,6.85
7.158814191818237,-3.75,-2.63,5.79,7.38
7.1688971519470215,-3.65,-2.05,5.36,6.8
7.178677082061768,-2.75,-1.09,5.39,6.14
7.1928551197052,-2.1,-0.48,4.12,4.64
7.199332237243652,-1.97,-0.6,1.3,2.43
7.208730220794678,-1.81,-1.23,-1.36,2.57
7.219702243804932,-1.32,-2.04,-2.94,3.81
7.243278980255127,-0.87,-2.79,-4.01,4.96
7.2459001541137695,-0.99,-3.08,-5.23,6.14
7.248970031738281,-1.8,-2.43,-6.2,6.89
7.2589430809021,-2.89,-0.65,-5.98,6.67
7.268957138061523,-3.79,1.6,-4.92,6.41
7.279029130935669,-4.66,3.73,-4.6,7.53
7.289228200912476,-6.17,5.4,-6.44,10.42
7.2997801303863525,-8.0,5.65,-8.16,12.74
7.309913158416748,-9.37,4.78,-8.43,13.47
7.3231611251831055,-10.13,3.28,-9.78,14.45
7.339941024780273,-9.46,0.72,-11.3,14.75
7.342939138412476,-6.41,-2.34,-12.3,14.06
7.3493852615356445,-2.43,-5.15,-12.83,14.03
7.359577178955078,-0.57,-6.95,-14.11,15.73
7.3694071769714355,-1.57,-6.97,-14.17,15.86
7.379615306854248,-3.88,-5.41,-11.92,13.65
7.390088081359863,-3.7,-1.4,-3.91,5.56
7.405157089233398,2.78,12.38,9.18,15.66
7.410816192626953,-3.97,21.1,-5.57,22.18
7.4195332527160645,-12.02,8.04,-13.09,19.5
7.438864231109619,-9.03,-5.36,-5.79,11.99
7.441915035247803,-7.06,-5.85,-7.14,11.62
7.449560165405273,-8.82,0.1,-11.77,14.7
7.459805011749268,-7.97,4.23,-7.66,11.83
7.4699320793151855,-4.49,5.76,-3.97,8.31
7.480377197265625,-3.2,4.72,-0.18,5.7
7.489804267883301,-4.04,2.12,0.49,4.58
7.5038042068481445,-3.94,-0.09,-2.62,4.73
7.509957313537598,-1.89,-1.25,-4.47,5.01
7.524196147918701,0.78,-1.45,-4.01,4.33
7.5382981300354,2.36,-0.66,-3.65,4.39
7.542025089263916,2.66,0.0,-3.94,4.75
7.550168037414551,2.51,-0.27,-3.17,4.05
7.5598602294921875,1.99,-0.64,-1.57,2.61
7.574120044708252,1.21,-0.42,-0.41,1.34
7.580179214477539,0.64,0.03,0.3,0.7
7.589994192123413,0.38,0.19,0.74,0.85
7.600892066955566,0.36,0.04,0.87,0.94
7.615162134170532,0.47,-0.27,0.69,0.87
7.620966196060181,0.66,-0.48,0.41,0.91
7.643808126449585,0.81,-0.45,0.09,0.93
7.647674083709717,0.99,-0.27,0.02,1.02
7.650362014770508,1.04,-0.04,0.16,1.05
7.660314083099365,0.99,0.17,0.6,1.17
7.670367240905762,0.96,0.38,1.22,1.59
7.680997133255005,1.23,0.66,1.46,2.01
7.694847106933594,1.85,0.88,0.97,2.26
7.70064115524292,2.47,1.0,0.55,2.72
7.711136102676392,2.8,1.09,1.07,3.18
7.724289178848267,2.7,0.86,2.53,3.79
7.740684986114502,2.63,-0.04,4.01,4.79
7.744362115859985,2.95,-1.06,4.8,5.73
7.750600099563599,3.14,-0.94,4.67,5.7
7.7605931758880615,2.85,0.9,4.28,5.22
7.770727157592773,2.47,3.13,4.52,6.02
7.78482723236084,2.23,4.44,5.68,7.54
7.791477203369141,2.39,4.83,6.98,8.81
7.804806232452393,3.27,5.01,8.03,10.01
7.810916185379028,4.4,5.55,8.57,11.11
7.825156211853027,5.67,6.48,9.19,12.59
7.838707208633423,8.38,7.88,7.87,13.93
7.841336250305176,10.87,10.53,5.25,16.01
7.850973129272461,11.45,14.54,5.29,19.24
7.861448287963867,11.96,16.73,6.65,21.61
7.871119022369385,11.8,14.36,6.71,19.76
7.881219148635864,11.01,9.46,4.64,15.23
7.890897274017334,9.89,6.53,-0.5,11.86
7.905688285827637,7.79,6.17,-11.1,14.89
7.911230087280273,4.65,5.56,-18.83,20.17
7.921849250793457,3.55,5.28,-9.09,11.09
7.945708274841309,4.32,6.61,5.51,9.62
7.948793172836304,3.86,7.32,11.86,14.46
7.95129919052124,2.49,5.1,6.96,8.98
7.961183071136475,1.8,1.17,0.84,2.3
7.971410274505615,1.26,-1.79,-1.21,2.5
7.981573104858398,0.39,-3.28,0.66,3.36
7.991960048675537,-0.71,-3.42,3.7,5.08
8.004943132400513,-1.45,-3.09,5.02,6.07
8.012195110321045,-1.55,-2.63,4.56,5.48
8.025870323181152,-1.25,-2.12,3.58,4.34
8.028388023376465,-1.44,-2.49,3.13,4.25
8.042193174362183,-1.28,-2.3,1.53,3.04
8.044753074645996,-1.62,-2.44,-1.09,3.12
8.052386283874512,-2.13,-2.63,-3.15,4.62
8.062577247619629,-2.52,-2.68,-3.98,5.41
8.072420120239258,-2.8,-2.52,-4.69,6.01
8.082683086395264,-3.2,-1.94,-5.92,7.0
8.093298196792603,-3.82,-0.72,-6.75,7.78
8.10815715789795,-4.47,1.24,-6.99,8.38
8.113240242004395,-5.14,3.81,-7.9,10.16
8.12274718284607,-6.28,5.69,-10.58,13.55
8.13487720489502,-7.61,6.13,-11.24,14.89
8.142660140991211,-8.68,5.19,-10.21,14.37
8.152767181396484,-8.75,3.58,-9.73,13.56
8.163047313690186,-7.25,2.13,-10.46,12.9
8.172895193099976,-4.4,0.2,-11.88,12.67
8.183512210845947,-2.39,-4.3,-12.05,13.01
8.193754196166992,-2.55,-10.18,-10.62,14.93
8.206770181655884,-3.75,-11.64,-9.19,15.29
8.21381425857544,-5.24,-8.13,-8.48,12.86
8.22697114944458,-7.02,-4.21,-8.31,11.66
8.238386154174805,-7.54,-0.48,-5.29,9.22
8.243091106414795,0.96,16.2,22.23,27.52
8.253284215927124,3.57,34.29,14.54,37.41
8.263315200805664,-5.25,14.08,-19.35,24.49
8.273338317871094,-8.16,-11.73,-15.06,20.76
8.287172317504883,-10.14,-19.44,-7.89,23.3
8.293317317962646,-10.72,-7.33,-6.67,14.59
8.307363033294678,-9.54,3.96,-7.42,12.71
8.313250064849854,-6.31,9.91,-2.52,12.01
8.330589294433594,-4.25,11.42,1.44,12.26
8.34118127822876,-5.04,5.57,-0.32,7.51
8.343805313110352,-4.75,-1.15,-4.32,6.52
8.353414058685303,-1.14,-4.09,-4.96,6.52
8.363778114318848,2.16,-3.23,-5.2,6.49
8.373500108718872,3.3,-0.5,-6.61,7.4
8.383563041687012,4.0,1.5,-7.01,8.2
8.394124031066895,4.35,1.94,-5.75,7.46
8.40776014328003,3.14,0.81,-4.48,5.53
8.414361000061035,1.19,-0.37,-2.99,3.23
8.428269147872925,-0.17,-0.18,-0.48,0.54
8.43986701965332,-1.07,0.84,0.96,1.66
8.443718194961548,-1.71,1.63,1.22,2.65
8.453748226165771,-1.7,1.62,1.29,2.67
8.464191198348999,-0.95,1.01,1.02,1.72
8.473717212677002,0.26,0.48,0.38,0.66
8.48411512374878,1.79,0.18,-0.13,1.8
8.498701095581055,2.98,-0.03,-0.51,3.02
8.504038333892822,3.34,-0.2,-0.57,3.39
8.51817512512207,3.4,-0.43,0.31,3.44
8.524165153503418,3.28,-0.6,1.82,3.79
8.535190105438232,2.79,-0.6,2.81,4.0
8.54406213760376,2.21,-0.37,3.77,4.38
8.554358005523682,1.95,0.22,4.8,5.18
8.564074039459229,2.08,1.01,5.28,5.76
8.578397274017334,2.34,1.9,5.45,6.22
8.584405183792114,2.74,2.86,6.15,7.31
8.600829124450684,4.04,3.8,8.94,10.52
8.605935096740723,5.19,3.71,10.49,12.27
8.620139122009277,6.35,3.93,11.31,13.55
8.633933067321777,7.16,4.97,10.2,13.41
8.636612176895142,8.41,6.99,8.78,14.02
8.64635705947876,10.04,10.58,8.4,16.83
8.656311988830566,10.91,14.93,8.14,20.2
8.667249202728271,11.84,18.25,8.87,23.49
8.67658519744873,11.8,17.52,8.3,22.69
8.687064170837402,10.32,11.6,5.04,16.32
8.701227188110352,8.01,5.86,-4.86,11.05
8.707033157348633,6.26,3.12,-16.77,18.17
8.71988320350647,4.58,2.12,-17.11,17.83
8.737146139144897,3.57,4.09,-4.9,7.31
8.739773273468018,3.17,6.97,6.85,10.27
8.746479034423828,2.33,7.5,10.07,12.77
8.756654262542725,1.66,4.29,4.91,6.72
8.766584157943726,1.55,0.11,0.88,1.78
8.776401042938232,0.99,-2.92,-0.12,3.08
8.790756225585938,-0.58,-4.37,0.98,4.51
8.79666519165039,-2.01,-4.46,3.01,5.74
8.810746192932129,-2.05,-3.91,4.32,6.17
8.8165283203125,-1.08,-3.09,4.24,5.35
8.837018013000488,-0.24,-2.31,2.73,3.58
8.840717315673828,-0.12,-2.0,0.0,2.0
8.846805095672607,-0.53,-2.36,-2.73,3.64
8.856908321380615,-1.1,-3.03,-4.39,5.44
8.867709159851074,-1.67,-3.51,-4.74,6.12
8.88169002532959,-2.27,-3.48,-4.75,6.31
8.887668132781982,-2.82,-2.74,-4.92,6.29
8.901081085205078,-3.53,-0.96,-5.83,6.88
8.906966209411621,-4.48,1.81,-7.86,9.22
8.921146154403687,-5.32,4.43,-10.32,12.42
8.934683322906494,-5.97,5.89,-12.18,14.78
8.937389135360718,-6.48,6.07,-11.18,14.27
8.947388172149658,-6.87,5.17,-9.49,12.8
8.95712423324585,-7.23,3.21,-8.47,11.58
8.96759819984436,-7.07,0.54,-8.92,11.39
8.982295989990234,-5.69,-3.23,-10.27,12.17
8.987333297729492,-4.16,-7.81,-10.47,13.7
9.001336097717285,-4.18,-10.81,-9.56,15.02
9.007461071014404,-5.33,-10.08,-8.68,14.33
9.018014192581177,-6.39,-6.65,-8.52,12.55
9.034855127334595,-7.11,-3.13,-8.61,11.59
9.037559986114502,-7.95,-0.05,-10.1,12.85
9.04754114151001,-6.97,2.04,-5.77,9.27
9.057891130447388,6.98,19.56,36.09,41.63
9.067631244659424,8.44,33.72,22.49,41.4
9.081196308135986,-1.14,15.14,-27.15,31.1
9.088670253753662,-2.83,-9.72,-33.42,34.91
9.098172187805176,-7.66,-17.5,-13.66,23.48
9.108345985412598,-12.61,-8.26,-5.23,15.95
9.121885299682617,-11.57,-0.35,1.49,11.67
9.135751247406006,-6.68,5.59,-0.7,8.73
9.138445138931274,-3.83,10.11,-0.31,10.81
9.148023128509521,-5.81,8.19,3.61,10.67
9.157788276672363,-8.32,3.39,2.23,9.25
9.16780424118042,-6.97,-0.8,-0.58,7.03
9.177963256835938,-3.45,-2.45,-0.85,4.31
9.191911220550537,-0.66,-1.69,-2.35,2.96
9.197875022888184,1.23,-0.35,-4.58,4.75
9.213175296783447,3.2,-0.04,-5.31,6.19
9.217982292175293,4.42,-0.68,-4.58,6.4
9.238387107849121,3.63,-1.16,-3.59,5.23
9.241446018218994,2.32,-0.85,-2.43,3.46
9.248212099075317,2.14,-0.09,-1.02,2.37
9.258438110351562,1.93,0.36,-0.4,2.0
9.268495082855225,1.01,0.33,-0.41,1.13
9.278264045715332,0.21,0.13,-0.01,0.24
9.292540073394775,-0.21,0.16,0.29,0.39
9.298274040222168,-0.33,0.47,0.14,0.59
9.312793254852295,-0.08,0.78,0.3,0.83
9.319010257720947,0.14,1.1,0.32,1.15
9.341323137283325,0.04,1.27,0.25,1.29
9.344066143035889,0.18,1.01,1.19,1.57
9.348350048065186,0.66,0.46,2.61,2.73
9.358357191085815,1.19,0.28,2.98,3.22
9.368548154830933,1.99,0.21,2.94,3.55
9.379199028015137,2.78,0.13,3.35,4.35
9.392549991607666,2.96,0.22,3.9,4.9
9.399270057678223,2.82,0.26,4.49,5.3
9.40923023223877,2.7,0.4,4.88,5.59
9.422481060028076,2.25,1.32,5.45,6.04
9.439923286437988,1.6,2.93,6.42,7.23
9.442474126815796,1.39,4.26,7.56,8.78
9.448837280273438,1.72,4.9,8.49,9.95
9.458946228027344,2.46,5.28,9.29,10.96
9.4689040184021,3.41,6.34,9.98,12.3
9.478507995605469,4.93,8.06,9.5,13.39
9.489752292633057,7.36,10.46,8.91,15.58
9.503556251525879,8.4,13.62,7.92,17.85
9.509757041931152,9.49,16.59,7.47,20.52
9.519301176071167,10.3,17.48,8.43,21.97
9.539082050323486,9.08,15.07,9.17,19.84
9.54205322265625,6.34,10.46,5.53,13.42
9.549093246459961,5.21,5.72,-6.26,9.95
9.559000015258789,4.16,1.97,-17.6,18.19
9.569406986236572,3.57,1.93,-9.86,10.66
9.579854011535645,3.27,6.4,4.21,8.32
9.592771053314209,2.16,9.22,11.53,14.92
9.600045204162598,1.17,6.86,7.34,10.11
9.613943099975586,0.76,2.09,1.22,2.53
9.620126247406006,0.17,-1.35,0.14,1.36
9.642487049102783,-1.59,-2.92,2.19,3.98
9.645161151885986,-3.33,-3.11,3.88,5.98
9.649384021759033,-3.41,-2.84,4.48,6.3
9.659524202346802,-2.34,-2.33,4.75,5.78
9.669612169265747,-1.47,-1.9,4.18,4.82
9.68036413192749,-1.38,-2.23,2.41,3.56
9.694086074829102,-1.64,-3.21,0.33,3.61
9.70023512840271,-1.75,-4.11,-0.95,4.56
9.714766025543213,-1.69,-4.55,-1.69,5.13
9.72029733657837,-1.76,-4.48,-2.59,5.46
9.74319314956665,-2.3,-3.89,-3.82,5.91
9.746813297271729,-3.24,-2.79,-4.47,6.18
9.749738216400146,-4.14,-1.08,-4.43,6.15
9.759644985198975,-4.97,1.23,-5.69,7.65
9.769878149032593,-5.9,3.56,-8.53,10.96
9.780235290527344,-6.58,5.04,-9.39,12.52
9.790581226348877,-6.85,5.74,-8.95,12.64
9.803788185119629,-7.56,5.64,-10.45,14.07
9.81086015701294,-8.43,3.85,-11.74,14.95
9.824382305145264,-8.02,1.43,-12.0,14.5
9.841798305511475,-6.06,-2.11,-11.66,13.3
9.844818115234375,-4.15,-6.82,-10.35,13.07
9.85023832321167,-3.26,-10.2,-10.34,14.88
9.860270023345947,-3.08,-9.51,-10.56,14.54
9.870104312896729,-4.26,-6.33,-9.23,11.97
9.880127191543579,-6.2,-3.93,-8.79,11.45
9.895109176635742,-6.78,-1.57,-7.09,9.93
9.900353193283081,2.35,11.5,23.99,26.7
9.910757064819336,8.64,33.11,27.53,43.91
9.920505046844482,-2.14,17.99,-18.48,25.87
9.941102981567383,-5.44,-9.44,-27.15,29.25
9.944849014282227,-5.96,-18.61,-14.65,24.42
9.950478076934814,-9.39,-7.37,-9.34,15.15
9.960316181182861,-9.76,2.78,-3.62,10.77
9.970322132110596,-5.78,8.14,-4.81,11.08
9.980446100234985,-2.16,10.02,-2.59,10.57
9.995177268981934,-2.78,6.49,2.03,7.34
10.00069808959961,-4.47,1.26,-0.11,4.64
10.015008211135864,-3.12,-1.86,-3.33,4.92
10.02072811126709,-0.01,-2.35,-3.41,4.14
10.043696165084839,1.88,-1.01,-3.15,3.8
10.047473192214966,2.24,0.84,-4.42,5.02
10.050753116607666,2.45,1.29,-4.86,5.59
10.060681104660034,2.33,0.13,-3.05,3.84
10.071044206619263,1.33,-0.9,-0.91,1.84
10.080794334411621,0.01,-0.93,0.4,1.01
10.091535091400146,-0.81,-0.55,1.87,2.11
10.101499080657959,-1.08,-0.24,3.33,3.5
10.115598201751709,-0.87,-0.17,3.59,3.69
10.121860027313232,-0.22,-0.26,2.31,2.33
10.143845081329346,0.72,-0.37,0.72,1.08
10.146835327148438,1.59,-0.36,-0.37,1.67
10.15117621421814,2.07,-0.35,-0.96,2.3
10.160887241363525,2.09,-0.4,-0.91,2.31
10.17116117477417,1.63,-0.27,-0.42,1.7
10.18126916885376,0.98,0.1,0.2,1.0
10.191322326660156,0.64,0.52,0.99,1.28
10.205183982849121,0.59,0.89,1.79,2.08
10.211816310882568,0.83,1.04,2.29,2.64
10.22518014907837,1.2,0.81,2.3,2.71
10.2394380569458,1.67,0.65,1.56,2.37
10.24251413345337,2.47,1.21,0.54,2.8
10.251387119293213,2.88,2.3,0.22,3.69
10.261239051818848,1.84,2.95,0.6,3.52
10.271457195281982,0.55,2.62,1.39,3.01
10.281486988067627,0.04,1.75,2.4,2.97
10.297145128250122,-0.38,1.48,2.91,3.28
10.301770210266113,-0.53,2.06,3.42,4.02
10.315351009368896,0.06,2.37,3.96,4.61
10.322331190109253,0.98,2.52,3.93,4.77
10.34513521194458,1.7,2.63,3.61,4.77
10.348193168640137,2.28,2.47,3.56,4.89
10.351751327514648,2.68,2.44,3.59,5.1
10.361608028411865,2.84,2.88,4.06,5.73
10.371882200241089,2.93,3.76,4.93,6.85
10.38244915008545,3.36,4.72,6.16,8.45
10.397021293640137,3.74,4.96,7.86,10.01
10.40276312828064,4.47,4.54,9.76,11.65
10.411707162857056,5.88,4.95,11.32,13.68
10.426131248474121,7.79,6.58,11.49,15.36
10.439797163009644,10.28,7.22,11.43,16.98
10.442416191101074,13.55,5.06,5.41,15.44
10.452322006225586,17.94,3.79,-7.38,19.76
10.461935997009277,18.1,9.2,-17.88,27.05
10.47218132019043,11.46,12.99,-21.07,27.27
10.484873294830322,9.78,12.23,-16.12,22.47
10.492306232452393,10.21,11.34,-9.69,18.07
10.502624988555908,8.99,9.88,-7.64,15.38
10.516242980957031,4.62,8.09,-10.08,13.72
10.523044109344482,0.2,7.24,-11.63,13.7
10.542424201965332,-3.57,6.5,-9.8,12.28
10.545363187789917,-6.13,4.91,-5.28,9.46
10.552451133728027,-6.07,3.03,2.45,7.21
10.562472105026245,-3.98,1.38,9.94,10.79
10.572363138198853,-1.78,0.25,12.08,12.21
10.586618185043335,-1.35,0.02,9.29,9.38
10.59258508682251,-2.21,0.13,6.63,6.98
10.60270619392395,-2.34,-0.34,6.05,6.49
10.617125034332275,-1.13,-1.48,6.27,6.54
10.62314510345459,0.6,-2.76,5.92,6.55
10.641062259674072,1.9,-3.62,4.58,6.13
10.64474630355835,2.62,-4.15,2.54,5.52
10.652819156646729,3.26,-4.77,0.49,5.79
10.66275930404663,4.02,-5.79,-0.81,7.09
10.673091173171997,4.64,-7.1,-1.03,8.54
10.686724185943604,4.38,-8.35,-0.63,9.45
10.693628311157227,2.6,-9.27,-0.59,9.64
10.706799030303955,0.3,-9.69,-0.84,9.73
10.713144302368164,-1.41,-9.66,-1.08,9.82
10.726807117462158,-2.48,-9.33,-1.8,9.82
10.7418851852417,-3.36,-8.68,-3.36,9.89
10.744566202163696,-4.35,-7.64,-5.61,10.42
10.753120183944702,-5.27,-6.24,-6.96,10.73
10.76314115524292,-5.84,-4.6,-8.72,11.45
10.77315902709961,-5.9,-2.12,-11.67,13.24
10.787567138671875,-5.92,2.79,-14.23,15.66
10.79333209991455,-6.47,10.25,-15.3,19.51
10.807454109191895,-7.39,15.24,-12.44,21.01
10.813587188720703,-7.25,14.81,-6.8,17.83
10.82333517074585,-6.69,9.2,-8.91,14.44
10.843142032623291,-5.65,0.51,-12.43,13.66
10.84609317779541,-2.87,-9.89,-10.18,14.48
10.853491306304932,0.69,-14.82,-10.51,18.18
10.863494157791138,2.67,-11.22,-13.07,17.43
10.873788118362427,1.72,-4.53,-14.7,15.47
10.887394189834595,1.9,1.91,-10.36,10.7
10.893706321716309,22.31,36.43,44.02,61.34
10.908308029174805,16.31,50.15,6.06,53.08
10.913838148117065,-1.98,0.25,-42.67,42.71
10.928506135940552,-14.77,-27.56,-16.13,35.18
10.941658020019531,-25.09,-19.61,-7.47,32.7
10.94435715675354,-22.26,-2.31,-0.37,22.38
10.953861236572266,-9.32,12.51,8.06,17.55
10.963878154754639,-5.56,22.42,10.76,25.48
10.97399616241455,-10.12,13.41,-1.19,16.84
10.984800100326538,-7.35,-0.16,-7.81,10.72
10.99853801727295,0.71,-9.52,-6.97,11.82
11.004709243774414,9.34,-9.87,-9.12,16.36
11.013916015625,11.84,-0.78,-15.69,19.67
11.024546146392822,10.38,5.34,-11.82,16.61
11.04934811592102,5.47,1.76,-1.5,5.93
11.05236530303955,-1.25,-2.58,4.09,4.99
11.054868221282959,-5.23,-2.92,7.32,9.45
11.069022178649902,-5.68,-0.4,8.35,10.1
11.07417631149292,-3.21,1.85,6.35,7.35
11.084176063537598,0.73,1.28,3.22,3.54
11.094333171844482,4.0,-0.96,0.18,4.11
11.108994007110596,5.82,-2.26,-1.92,6.53
11.11475920677185,6.27,-1.94,-2.05,6.87
11.129187107086182,5.01,-0.83,-0.58,5.11
11.142771244049072,2.56,0.21,1.06,2.77
11.145402193069458,0.82,0.93,2.39,2.69
11.154548168182373,0.19,1.42,3.02,3.34
11.164404153823853,0.53,1.28,2.56,2.91
11.174499988555908,1.54,0.79,1.7,2.42
11.185134172439575,2.2,0.59,1.37,2.65
11.194525241851807,2.03,0.49,1.8,2.75
11.208989143371582,1.39,0.53,3.36,3.67
11.21455430984497,0.8,0.47,5.03,5.11
11.229756116867065,0.59,0.1,6.12,6.14
11.243003129959106,1.1,-0.18,6.59,6.68
11.245613098144531,2.19,0.18,6.51,6.87
11.254983186721802,3.2,1.01,6.16,7.01
11.2645583152771,4.07,1.67,5.87,7.33
11.27466106414795,4.82,2.25,5.53,7.67
11.288847208023071,4.99,3.21,5.4,8.02
11.295006275177002,4.88,4.65,5.89,8.95
11.308834075927734,5.98,7.14,4.9,10.52
11.314961194992065,7.83,10.72,7.19,15.09
11.325379133224487,7.41,13.19,10.42,18.37
11.34800410270691,7.54,13.12,12.87,19.86
11.351022243499756,8.39,11.95,12.65,19.31
11.355054140090942,8.69,10.67,10.84,17.51
11.365040302276611,8.99,8.82,3.85,13.16
11.375156164169312,9.32,7.84,-5.3,13.28
11.385743141174316,8.29,8.54,-15.13,19.25
11.399985313415527,6.28,8.91,-17.53,20.64
11.404901027679443,4.83,9.68,-6.44,12.58
11.418939113616943,4.01,10.32,4.01,11.77
11.425108194351196,2.66,9.31,5.88,11.32
11.445027112960815,1.31,6.39,3.23,7.27
11.448140144348145,0.77,3.02,1.31,3.38
11.455332279205322,0.29,0.46,1.39,1.49
11.465233325958252,-0.74,-0.96,2.4,2.68
11.481046199798584,-2.1,-1.29,3.03,3.9
11.485430240631104,-3.15,-1.19,3.91,5.16
11.499861240386963,-3.38,-1.2,5.33,6.42
11.50549030303955,-2.85,-1.35,5.72,6.53
11.51622724533081,-2.01,-1.5,4.31,4.98
11.528938293457031,-1.38,-1.59,2.42,3.2
11.546295166015625,-1.03,-1.63,0.76,2.07
11.549467086791992,-0.71,-1.72,-0.56,1.94
11.55587100982666,-0.3,-2.1,-1.7,2.71
11.565651178359985,-0.16,-2.69,-3.23,4.2
11.575628280639648,-0.44,-3.24,-4.85,5.84
11.585960149765015,-0.97,-3.42,-5.47,6.52
11.596484184265137,-1.81,-2.96,-6.44,7.31
11.609453201293945,-2.72,-2.05,-8.18,8.86
11.616682052612305,-3.46,-0.87,-9.57,10.21
11.630450248718262,-4.04,0.4,-8.99,9.86
11.64700698852539,-4.94,1.53,-8.69,10.11
11.64960527420044,-5.99,2.32,-9.54,11.5
11.656017303466797,-6.74,2.59,-9.65,12.05
11.665966033935547,-7.45,2.86,-9.79,12.63
11.676067113876343,-7.73,2.71,-10.89,13.62
11.686294078826904,-6.76,0.83,-11.82,13.64
11.696965217590332,-4.54,-2.47,-11.88,12.95
11.710134983062744,-2.06,-5.06,-10.65,11.96
11.717034101486206,-1.07,-5.78,-9.9,11.51
11.730948209762573,-1.83,-5.47,-10.85,12.28
11.746302127838135,-3.3,-5.1,-13.18,14.51
11.748932123184204,-4.05,-4.99,-17.51,18.65
11.75645112991333,-6.93,-3.4,-10.24,12.82
11.766538143157959,-11.97,2.68,-4.59,13.09
11.776346206665039,-10.37,7.52,-6.67,14.44
11.786367177963257,-7.44,6.31,2.64,10.1
11.800369262695312,-1.59,10.65,19.7,22.45
11.806539058685303,7.91,31.61,7.63,33.46
11.820964336395264,-1.65,15.55,-16.98,23.08
11.826464176177979,-11.4,-12.91,-10.75,20.3
11.846326112747192,-10.45,-18.01,-9.83,23.02
11.849516153335571,-1.65,-10.18,-6.98,12.45
11.856725215911865,5.9,0.12,-4.31,7.3
11.866677284240723,5.09,10.04,-8.64,14.19
11.8769211769104,2.62,11.13,-8.72,14.37
11.886785984039307,1.92,3.78,-5.09,6.62
11.89751410484314,0.76,-2.89,-2.77,4.07
11.90757131576538,-1.72,-4.22,-1.38,4.76
11.920958042144775,-4.0,-1.74,1.3,4.55
11.927537202835083,-4.97,1.55,3.99,6.55
11.949745178222656,-4.81,3.22,4.82,7.53
11.953513145446777,-4.12,2.91,4.12,6.51
11.9569993019104,-2.47,1.09,3.25,4.22
11.967048168182373,-0.04,-0.61,2.3,2.37
11.977560997009277,2.25,-1.14,0.31,2.54
11.99111819267273,3.58,-1.22,-1.6,4.1
11.997855186462402,4.24,-1.61,-2.08,4.98
12.011836051940918,3.81,-1.53,-1.71,4.44
12.017245292663574,2.36,-0.93,-1.6,2.99
12.028076171875,1.66,0.32,1.97,2.59
12.035462141036987,1.73,0.36,2.08,2.72
12.046217203140259,1.74,1.9,4.49,5.17
12.055556297302246,2.14,1.92,4.07,4.98
12.065563201904297,3.55,0.77,4.9,6.09
12.075915336608887,5.42,-0.3,6.38,8.37
12.085739135742188,6.63,-0.69,6.39,9.23
12.100919246673584,7.01,-0.1,5.83,9.11
12.10584831237793,6.11,1.87,6.57,9.16
12.11647915840149,4.57,3.85,7.67,9.72
12.125882148742676,3.85,5.08,8.95,10.98
12.140246152877808,4.26,5.9,9.69,12.11
12.152129173278809,5.66,7.47,9.3,13.2
12.155893325805664,8.29,10.96,7.82,15.81
12.166113138198853,9.71,15.46,10.34,20.98
12.17604923248291,10.21,17.62,14.77,25.15
12.186143159866333,11.76,16.91,13.21,24.46
12.196390151977539,12.24,15.67,9.38,21.98
12.207005023956299,12.1,14.6,7.42,20.36
12.22006607055664,12.33,12.61,4.63,18.23
12.226205110549927,9.75,10.85,-4.85,15.37
12.241434097290039,5.66,9.07,-17.48,20.49
12.254460334777832,2.67,6.08,-17.94,19.12
12.257111072540283,3.34,5.55,0.7,6.51
12.266293048858643,4.13,8.3,14.31,17.05
12.276544094085693,2.12,9.05,11.7,14.94
12.286333084106445,0.57,4.72,3.73,6.04
12.296476125717163,0.38,0.54,1.3,1.45
12.307229042053223,-0.3,-2.37,2.41,3.39
12.320340156555176,-1.82,-4.03,4.45,6.27
12.327169179916382,-3.61,-4.53,4.24,7.17
12.34123420715332,-4.69,-4.05,2.17,6.56
12.35319709777832,-4.46,-3.33,1.26,5.7
12.356849193572998,-3.47,-3.17,1.56,4.95
12.365961074829102,-3.12,-3.51,0.65,4.74
12.37662124633789,-3.91,-4.02,-1.93,5.93
12.390651226043701,-5.02,-4.59,-4.49,8.15
12.396825313568115,-5.68,-5.03,-6.28,9.84
12.406984329223633,-5.91,-4.51,-7.6,10.63
12.420933246612549,-6.25,-2.04,-9.36,11.43
12.427592277526855,-6.74,2.21,-10.75,12.87
12.44135332107544,-7.08,6.66,-10.15,14.05
12.45469331741333,-7.42,9.85,-8.56,15.01
12.457484245300293,-8.9,10.25,-8.79,16.17
12.467311143875122,-10.94,7.92,-12.68,18.52
12.47694730758667,-10.19,3.55,-15.91,19.22
12.486987113952637,-6.12,-3.69,-11.6,13.62
12.497262001037598,-3.03,-9.88,-5.06,11.5
12.507680177688599,-2.96,-11.05,-5.09,12.52
12.521066188812256,-3.6,-8.64,-6.16,11.2
12.527907133102417,-3.58,-6.76,-5.44,9.38
12.541009187698364,-4.61,-4.33,-6.7,9.21
12.553644180297852,-5.37,0.21,-8.07,9.69
12.557138204574585,3.33,12.82,15.13,20.1
12.56728219985962,8.63,25.39,0.22,26.81
12.577298164367676,1.64,10.3,-29.27,31.07
12.587472200393677,-4.73,-5.43,-21.8,22.95
12.598309993743896,-10.9,-7.76,-15.72,20.64
12.617149114608765,-19.02,2.72,-5.76,20.05
12.622467041015625,-13.94,5.67,2.65,15.28
12.635927200317383,-8.18,6.4,4.38,11.27
12.649550199508667,-7.25,5.22,1.29,9.02
12.652189254760742,-8.82,3.37,-2.48,9.76
12.661838054656982,-7.89,2.25,-4.91,9.56
12.671915054321289,-2.88,1.74,-7.09,7.84
12.682109117507935,3.21,0.32,-7.39,8.06
12.697137117385864,6.37,-1.57,-7.44,9.91
12.702130317687988,6.11,-2.68,-7.95,10.37
12.712562084197998,4.43,-2.62,-6.51,8.29
12.722084999084473,2.37,-1.33,-2.76,3.87
12.73621916770935,0.12,0.27,1.15,1.18
12.7504301071167,-1.69,1.11,3.25,3.82
12.753122329711914,-2.21,1.04,3.77,4.49
12.762145042419434,-1.49,0.64,3.43,3.79
12.772164106369019,-0.32,0.33,1.95,2.0
12.782463073730469,0.82,-0.14,-0.01,0.83
12.792793273925781,1.88,-0.38,-1.01,2.16
12.806643009185791,2.7,0.03,-0.76,2.8
12.813051223754883,3.08,0.59,-0.46,3.16
12.823000192642212,3.0,1.09,-0.29,3.2
12.83706021308899,2.79,1.77,0.53,3.34
12.851803302764893,2.56,2.42,1.34,3.76
12.854452133178711,2.48,2.01,3.24,4.54
12.862663269042969,3.08,0.39,6.4,7.11
12.872421264648438,3.99,-1.5,7.82,8.9
12.882681131362915,4.29,-1.49,6.38,7.83
12.893293142318726,4.01,1.15,5.73,7.08
12.906667232513428,3.51,3.8,6.64,8.41
12.913407325744629,3.11,5.14,7.92,9.94
12.926693201065063,3.54,6.18,9.1,11.55
12.932677268981934,5.02,7.43,10.39,13.72
12.952355146408081,6.98,8.57,11.52,15.96
12.955141067504883,8.62,9.88,12.14,17.86
12.962902069091797,11.2,11.44,9.86,18.8
12.97319221496582,12.88,13.55,8.17,20.4
12.983192205429077,13.23,16.14,8.75,22.62
12.993957996368408,12.43,16.05,10.14,22.69
13.002949237823486,10.84,12.65,9.76,19.3
13.013720035552979,9.7,9.23,2.31,13.58
13.023152112960815,8.19,7.35,-15.66,19.13
13.037023067474365,5.05,5.09,-25.29,26.28
13.050989151000977,3.29,5.32,-7.92,10.09
13.053646087646484,2.34,8.36,7.9,11.73
13.063226222991943,-0.21,10.52,12.18,16.09
13.073629140853882,-1.83,7.64,4.64,9.12
13.08337926864624,-1.69,2.7,1.18,3.39
13.093109130859375,-1.36,-0.77,2.46,2.91
13.107277154922485,-2.19,-2.79,5.04,6.16
13.113278150558472,-3.94,-3.4,6.02,7.95
13.123961210250854,-5.19,-3.13,5.65,8.28
13.134117126464844,-4.88,-2.12,5.39,7.57
13.156070232391357,-3.38,-1.35,4.86,6.07
13.158756256103516,-2.2,-1.31,2.81,3.8
13.163526058197021,-2.23,-1.59,0.15,2.74
13.173515319824219,-2.84,-1.85,-1.64,3.76
13.183948993682861,-3.06,-2.19,-2.83,4.7
13.193536281585693,-2.78,-2.47,-4.5,5.83
13.204172134399414,-2.64,-2.07,-5.91,6.79
13.217326164245605,-3.02,-0.41,-6.62,7.28
13.224042177200317,-3.89,2.07,-7.62,8.8
13.237534999847412,-4.84,3.64,-10.06,11.74
13.251440048217773,-5.72,3.13,-11.0,12.78
13.253979206085205,-6.52,1.7,-10.87,12.78
13.264167308807373,-7.11,1.11,-11.01,13.15
13.27398419380188,-7.99,1.64,-10.11,12.99
13.283956050872803,-9.12,1.54,-7.81,12.1
13.29882526397705,-9.69,-0.77,-7.14,12.06
13.304063320159912,-9.15,-5.04,-7.26,12.72
13.31466007232666,-7.96,-8.81,-7.79,14.2
13.328391075134277,-6.92,-10.31,-9.76,15.79
13.334745168685913,-6.01,-8.7,-10.37,14.81
13.356959104537964,2.15,1.99,-0.57,2.98
13.35991907119751,11.42,20.07,-9.05,24.8
13.363936185836792,0.06,16.57,-4.41,17.14
13.374069213867188,-4.62,2.7,-8.95,10.42
13.383947134017944,-3.36,-5.47,-18.59,19.66
13.394331216812134,-6.31,-7.37,-19.75,22.0
13.4083731174469,-9.55,-4.16,-15.41,18.6
13.41447114944458,-10.58,2.03,-6.11,12.38
13.429413318634033,-7.89,6.97,-0.13,10.52
13.434527158737183,-4.68,7.62,0.74,8.97
13.454301118850708,-5.44,4.93,0.37,7.35
13.458009243011475,-7.74,1.7,-1.77,8.11
13.464702129364014,-7.01,-0.05,-3.34,7.76
13.474501132965088,-3.07,-0.49,-2.88,4.23
13.48561716079712,0.61,-0.34,-1.42,1.58
13.494567155838013,1.46,0.58,-1.46,2.14
13.508612155914307,1.32,1.37,-2.34,3.01
13.514685153961182,2.25,0.57,-2.48,3.39
13.525289058685303,3.12,-0.88,-2.37,4.01
13.53827714920044,2.95,-1.53,-2.26,4.01
13.554794311523438,2.4,-1.13,-1.7,3.15
13.557476043701172,1.96,-0.25,-0.59,2.06
13.564796209335327,1.22,0.38,0.14,1.28
13.574759006500244,0.04,0.38,0.77,0.85
13.584806203842163,-0.62,0.29,1.61,1.74
13.594797134399414,-0.55,0.66,1.75,1.94
13.605524063110352,0.24,1.21,1.6,2.02
13.618908166885376,1.45,1.24,2.14,2.86
13.62575912475586,2.43,0.96,2.67,3.73
13.638918161392212,3.48,0.44,3.86,5.21
13.653899192810059,4.52,-0.36,5.09,6.81
13.656549215316772,5.19,-0.92,4.85,7.16
13.665407180786133,5.57,0.01,4.33,7.05
13.675141334533691,5.27,2.34,5.29,7.82
13.685359001159668,4.6,4.39,7.12,9.54
13.699504137039185,4.49,5.43,8.44,10.99
13.705201148986816,5.02,6.04,9.33,12.19
13.71601414680481,6.21,6.78,10.45,13.91
13.725345134735107,7.89,8.14,11.04,15.82
13.739450216293335,9.55,10.4,8.89,16.68
13.753013134002686,9.87,12.96,9.83,19.02
13.75577712059021,10.03,15.14,11.51,21.5
13.765979290008545,11.41,16.21,11.98,23.16
13.775889158248901,12.06,15.56,13.56,23.9
13.785636186599731,11.67,11.67,11.01,19.83
13.796080112457275,10.1,7.12,-7.05,14.22
13.81040620803833,8.59,5.13,-22.44,24.56
13.81645917892456,7.41,4.64,-17.12,19.22
13.825607299804688,7.08,7.72,2.71,10.81
13.839816093444824,5.46,10.65,12.68,17.43
13.853373050689697,2.23,9.17,5.67,11.0
13.856333255767822,0.95,4.6,-1.21,4.85
13.865974187850952,1.14,0.86,-1.33,1.95
13.875989198684692,0.61,-1.64,1.49,2.29
13.885813236236572,-0.78,-2.76,2.86,4.05
13.899834156036377,-2.04,-2.89,2.1,4.11
13.905824184417725,-2.33,-2.82,1.89,4.11
13.921123027801514,-1.68,-2.88,2.64,4.25
13.92605209350586,-1.26,-3.16,2.72,4.35
13.936800003051758,-1.7,-3.32,0.66,3.78
13.954893112182617,-2.29,-3.28,-2.06,4.49
13.957527160644531,-2.42,-3.0,-3.98,5.54
13.966098308563232,-2.39,-2.85,-4.91,6.15
13.976291179656982,-3.06,-3.1,-5.89,7.32
13.986396312713623,-4.42,-3.36,-7.94,9.68
14.00121021270752,-5.25,-2.87,-9.88,11.55
14.006296157836914,-5.12,-1.12,-11.47,12.61
14.016833305358887,-5.14,1.49,-13.07,14.12
14.02642011642456,-6.14,3.49,-14.23,15.88
14.04079008102417,-7.48,3.41,-12.93,15.32
14.054489135742188,-8.65,1.46,-10.63,13.78
14.057266235351562,-9.27,-1.37,-8.97,12.97
14.066365242004395,-8.48,-3.67,-8.34,12.44
14.076800107955933,-6.16,-4.85,-9.81,12.55
14.086610317230225,-4.16,-5.49,-11.06,13.02
14.096585273742676,-4.69,-5.67,-11.17,13.37
14.111146211624146,-7.25,-5.59,-9.66,13.3
14.116806983947754,-6.68,-1.49,-1.57,7.02
14.127374172210693,2.91,16.52,14.48,22.15
14.136733055114746,0.07,23.52,-0.19,23.52
14.159619331359863,-4.22,4.13,-10.94,12.43
14.16320514678955,-3.54,-9.97,-12.07,16.05
14.166791200637817,-8.06,-9.86,-13.53,18.58
14.176923274993896,-12.3,-2.52,-10.32,16.25
14.187095165252686,-11.64,4.76,-5.72,13.81
14.196866989135742,-8.18,8.83,-1.06,12.08
14.20755410194397,-6.14,7.92,0.81,10.05
14.22159719467163,-5.81,3.89,-2.46,7.41
14.227745056152344,-3.46,0.0,-4.9,5.99
14.241072177886963,1.15,-1.92,-4.77,5.26
14.257700204849243,4.64,-1.57,-6.31,7.98
14.261370182037354,5.68,-0.47,-8.75,10.44
14.267168998718262,5.47,-0.11,-7.88,9.59
14.277289152145386,3.78,-0.16,-4.36,5.77
14.287257194519043,0.6,-0.16,-1.59,1.7
14.301385164260864,-2.03,0.36,0.68,2.17
14.30737018585205,-3.17,1.34,2.97,4.54
14.317983150482178,-3.27,1.78,3.84,5.34
14.32797908782959,-2.29,1.22,3.17,4.09
14.342215061187744,-0.33,0.52,1.82,1.92
14.355403184890747,1.87,0.0,0.23,1.88
14.358169078826904,3.73,-0.32,-0.88,3.84
14.36755919456482,4.28,-0.09,-0.48,4.3
14.377254009246826,3.61,0.16,0.83,3.7
14.387692213058472,2.75,0.27,2.28,3.58
14.397538185119629,1.87,0.54,3.34,3.86
14.413472175598145,0.9,0.95,3.75,3.97
14.417869091033936,0.28,1.11,3.8,3.96
14.42818832397461,0.3,0.93,4.4,4.5
14.437709331512451,0.69,0.73,5.11,5.2
14.457569122314453,1.45,1.0,5.53,5.8
14.460669994354248,2.65,1.72,5.61,6.43
14.467883110046387,3.81,2.67,5.81,7.44
14.477800130844116,4.53,3.54,6.23,8.47
14.48789930343628,5.13,4.12,6.92,9.54
14.498512268066406,5.7,4.57,7.56,10.51
14.50803017616272,6.19,5.14,8.06,11.38
14.518561124801636,6.96,6.48,8.77,12.93
14.52866816520691,8.76,9.23,9.82,16.07
14.541612148284912,10.2,11.84,11.54,19.42
14.55593204498291,9.66,12.65,11.75,19.78
14.558670997619629,9.47,11.89,10.93,18.72
14.568219184875488,11.33,10.22,10.49,18.51
14.577951192855835,14.64,7.42,5.4,17.27
14.58836817741394,15.45,6.12,-6.43,17.81
14.598901271820068,13.5,7.23,-17.94,23.58
14.608978271484375,9.29,7.36,-20.51,23.68
14.618121147155762,5.07,6.38,-10.86,13.57
14.628777027130127,3.29,6.53,1.34,7.43
14.642114162445068,1.77,7.24,7.91,10.86
14.658913135528564,-0.31,6.68,6.95,9.64
14.661669254302979,-1.08,3.67,4.2,5.68
14.66852331161499,-0.83,0.35,4.57,4.65
14.678189277648926,-1.23,-1.89,6.3,6.69
14.688568115234375,-2.36,-2.8,6.75,7.67
14.698711156845093,-3.11,-3.0,5.82,7.24
14.709074020385742,-2.72,-2.74,4.5,5.92
14.718829154968262,-1.55,-2.15,3.45,4.35
14.72919225692749,-0.42,-1.7,1.82,2.52
14.743405103683472,0.29,-1.61,-0.55,1.72
14.757837295532227,0.51,-1.85,-3.34,3.85
14.760673999786377,0.42,-2.23,-5.74,6.17
14.768901109695435,0.04,-2.62,-6.78,7.26
14.77883005142212,-0.83,-2.42,-6.5,6.98
14.789023160934448,-2.16,-1.13,-5.89,6.37
14.799057006835938,-3.58,1.05,-5.77,6.87
14.808852195739746,-5.11,3.91,-8.23,10.44
14.823331117630005,-6.79,6.42,-11.77,15.02
14.829038143157959,-8.4,7.07,-11.85,16.15
14.83970022201538,-9.7,6.57,-10.94,16.02
14.863355159759521,-10.75,5.12,-10.19,15.67
14.86714506149292,-10.9,1.45,-9.72,14.67
14.869688987731934,-8.56,-4.46,-10.01,13.9
14.879226207733154,-4.06,-9.93,-11.04,15.39
14.889227151870728,-1.33,-11.51,-13.04,17.44
14.89933729171753,-3.04,-9.03,-13.64,16.63
14.909202098846436,-6.42,-6.06,-12.22,15.07
14.922587156295776,-9.02,-3.95,-10.95,14.72
14.930066108703613,-5.86,3.9,9.74,12.01
14.943463325500488,3.4,29.44,22.08,36.95
14.96003532409668,0.75,22.32,-21.26,30.83
14.962538242340088,-2.38,-2.43,-16.12,16.47
14.969483137130737,-9.49,-9.57,-7.72,15.53
14.979496002197266,-16.91,-6.16,-8.13,19.74
14.989607334136963,-15.69,-1.07,-7.27,17.32
14.999360084533691,-9.49,3.83,-3.78,10.9
15.01026725769043,-3.77,6.64,2.91,8.17
15.023612022399902,-3.48,5.17,0.69,6.27
15.030386209487915,-5.27,2.4,-4.96,7.62
15.043357133865356,-3.87,0.73,-5.86,7.06
15.060923099517822,0.16,0.11,-5.48,5.48
15.063494205474854,3.66,-0.02,-5.82,6.87
15.069841146469116,5.52,0.18,-6.02,8.16
15.079744100570679,5.64,0.07,-5.81,8.09
15.089867115020752,4.12,-0.83,-4.6,6.23
15.099760055541992,2.02,-1.02,-2.38,3.28
15.11066198348999,-0.02,-0.22,-0.26,0.34
15.124032020568848,-1.56,0.84,1.65,2.42
15.130712985992432,-2.42,1.76,2.9,4.16
15.144508123397827,-2.33,1.9,2.58,3.96
15.159953117370605,-1.12,1.33,1.67,2.41
15.162489175796509,0.33,0.47,1.19,1.32
15.170132160186768,1.57,-0.71,0.75,1.87
15.18027400970459,2.84,-1.62,-0.14,3.27
15.190208196640015,4.22,-1.89,-0.38,4.63
15.200223207473755,5.06,-1.37,0.88,5.31
15.215234279632568,4.79,-0.42,2.82,5.57
15.220353126525879,4.04,0.1,4.79,6.26
15.230854988098145,3.53,0.63,6.24,7.19
15.245062112808228,3.02,1.83,6.57,7.45
15.260850191116333,2.9,3.37,7.19,8.45
15.263370037078857,3.23,4.1,7.73,9.32
15.270514011383057,3.49,4.03,7.98,9.59
15.28023099899292,3.62,4.03,8.53,10.1
15.290592193603516,3.61,4.65,9.09,10.82
15.300426006317139,3.68,5.65,9.51,11.65
15.315376281738281,4.35,6.96,10.68,13.46
15.320645332336426,5.49,9.55,10.44,15.17
15.331079006195068,7.97,13.62,8.76,18.04
15.34563398361206,9.61,17.7,9.26,22.16
15.358911991119385,9.34,19.42,9.53,23.56
15.36148715019226,8.87,16.5,9.07,20.81
15.370825290679932,10.87,9.93,1.79,14.83
15.38086223602295,12.59,6.37,-11.86,18.43
15.391717195510864,11.81,4.93,-22.48,25.86
15.406124114990234,8.32,3.99,-17.88,20.12
15.41092300415039,6.62,4.69,-3.13,8.69
15.42529010772705,6.38,5.47,6.17,10.42
15.430994033813477,4.5,5.07,6.83,9.62
15.446508169174194,2.26,2.22,2.02,3.75
15.459717273712158,1.48,-1.2,-0.27,1.92
15.462301254272461,0.91,-3.77,1.42,4.13
15.471193313598633,-0.4,-4.76,4.02,6.24
15.481115102767944,-1.71,-4.36,4.8,6.7
15.491164207458496,-1.99,-3.65,4.12,5.85
15.506303310394287,-1.17,-2.85,3.11,4.37
15.511404037475586,-0.2,-2.13,2.1,2.99
15.525501251220703,-0.03,-1.96,0.62,2.05
15.531230211257935,-0.55,-2.45,-1.39,2.87
15.54181718826294,-0.94,-3.21,-3.51,4.84
15.565072059631348,-0.98,-3.76,-5.72,6.91
15.56876015663147,-1.14,-3.87,-7.19,8.24
15.571232318878174,-1.9,-3.16,-7.91,8.72
15.581435203552246,-3.09,-0.94,-9.66,10.18
15.59159803390503,-4.02,2.44,-12.74,13.58
15.602203130722046,-4.68,5.95,-16.1,17.79
15.611383199691772,-5.64,7.69,-16.1,18.71
15.622336149215698,-7.47,6.9,-12.69,16.26
15.636488199234009,-8.8,4.11,-8.13,12.66
15.642499208450317,-9.29,0.1,-5.78,10.94
15.660173177719116,-7.85,-3.9,-7.39,11.46
15.66273021697998,-4.0,-7.46,-10.0,13.1
15.671878099441528,-0.23,-10.12,-10.77,14.78
15.681732177734375,-0.44,-9.52,-10.3,14.03
15.691955089569092,-3.73,-6.48,-9.07,11.75
15.7016761302948,-6.6,-3.56,-9.15,11.83
15.716360092163086,-7.94,-0.98,-6.05,10.03
15.721946239471436,-3.82,10.23,22.58,25.08
15.732489109039307,1.5,26.37,12.57,29.25
15.74756121635437,3.58,13.86,-26.92,30.48
15.75972032546997,2.73,-7.64,-19.66,21.26
15.762310028076172,-3.31,-14.2,-6.15,15.82
15.772208213806152,-10.68,-7.15,-3.82,13.4
15.782040119171143,-12.18,0.32,-2.37,12.41
15.792829990386963,-7.92,4.68,-2.77,9.6
15.8060622215271,-4.89,7.2,-0.9,8.74
15.812846183776855,-5.94,5.33,0.27,7.98
15.82722806930542,-7.71,2.0,-2.33,8.29
15.832348108291626,-6.18,0.02,-3.08,6.9
15.847850322723389,-2.91,-0.27,-1.89,3.48
15.860758304595947,-0.53,0.62,-2.5,2.62
15.86335802078247,1.01,1.55,-4.83,5.17
15.872299194335938,2.97,1.55,-5.79,6.68
15.8823401927948,4.79,0.45,-5.2,7.08
15.892617225646973,5.02,-0.85,-4.79,6.99
15.903205156326294,3.74,-1.44,-4.06,5.7
15.916668176651001,1.99,-1.0,-2.18,3.11
15.923424243927002,0.34,-0.08,-0.25,0.42
15.936511993408203,-1.12,0.64,1.01,1.63
15.943173170089722,-2.11,0.97,1.8,2.93
15.96527910232544,-2.49,0.98,2.13,3.42
15.968122005462646,-2.02,0.82,2.23,3.11
15.97286319732666,-0.7,0.52,2.07,2.24
15.982748985290527,0.71,0.17,1.6,1.75
15.992738246917725,1.76,0.01,0.75,1.91
16.002891063690186,2.71,0.17,0.42,2.74
16.017394065856934,3.24,0.57,1.09,3.46
16.023688316345215,3.05,0.66,2.3,3.87
16.029290199279785,3.18,0.7,2.39,4.03
16.042705059051514,2.57,0.26,3.68,4.49
16.04951310157776,2.03,-0.02,4.55,4.98
16.062541007995605,2.2,0.92,4.7,5.27
16.06882619857788,2.56,2.62,4.25,5.61
16.079145193099976,2.78,3.71,3.89,6.05
16.08890414237976,3.62,4.14,5.11,7.5
16.09890127182007,4.42,3.96,5.86,8.34
16.109629154205322,4.46,3.65,4.91,7.57
16.123640060424805,4.35,3.92,4.27,7.24
16.129728317260742,4.27,5.23,4.89,8.33
16.143150329589844,4.37,7.14,6.07,10.34
16.149667263031006,5.19,9.03,7.27,12.7
16.16140127182007,7.31,10.85,8.61,15.66
16.16928219795227,10.1,12.84,7.86,18.12
16.179396152496338,10.73,13.26,4.07,17.53
16.189337253570557,10.6,10.86,0.68,15.19
16.199215173721313,11.66,7.56,-2.83,14.18
16.214287281036377,10.95,5.5,-5.77,13.54
16.219388008117676,8.66,4.83,-6.87,12.06
16.23009204864502,6.57,4.88,-5.92,10.1
16.239315032958984,4.8,5.54,-3.74,8.22
16.253449201583862,4.11,6.64,2.77,8.28
16.26505708694458,3.03,6.64,6.3,9.64
16.269489288330078,1.4,5.14,4.71,7.11
16.279564142227173,0.44,2.8,2.71,3.92
16.289749145507812,0.09,0.57,2.48,2.54
16.30031418800354,-0.07,-0.85,3.14,3.25
16.310176134109497,-0.01,-1.51,3.2,3.53
16.325374126434326,0.32,-1.88,2.28,2.97
16.332003116607666,0.8,-2.27,1.08,2.63
16.33971405029297,1.2,-2.74,-0.07,2.99
16.350425243377686,1.26,-3.21,-1.43,3.73
16.364074230194092,0.95,-3.51,-2.27,4.28
16.370148181915283,0.29,-3.7,-2.31,4.37
16.380028247833252,-0.45,-3.71,-2.7,4.61
16.38981318473816,-0.9,-3.6,-3.5,5.1
16.399978160858154,-1.24,-3.37,-5.13,6.26
16.414469242095947,-1.66,-3.0,-6.36,7.22
16.42066526412964,-2.29,-2.35,-8.0,8.64
16.43394708633423,-2.84,-1.17,-10.28,10.72
16.44023609161377,-2.96,0.59,-12.2,12.56
16.454439163208008,-2.74,2.99,-15.06,15.59
16.467897176742554,-2.92,5.12,-17.99,18.93
16.470579147338867,-3.51,4.78,-17.21,18.2
16.480504989624023,-4.38,2.53,-14.44,15.3
16.49023723602295,-4.94,0.55,-13.22,14.12
16.500246047973633,-4.3,-1.4,-11.91,12.73
16.51025414466858,-3.48,-3.96,-9.66,11.0
16.52092719078064,-3.97,-8.36,-3.98,10.07
16.53450298309326,-5.01,-11.4,-2.13,12.63
16.5404531955719,-3.54,-12.55,-3.33,13.45
16.554192066192627,-0.37,-11.67,-8.6,14.5
16.565985202789307,0.38,-9.16,-12.88,15.8
16.57044506072998,1.0,-0.25,4.68,4.79
16.580605030059814,9.43,17.73,2.29,20.21
16.594869136810303,1.83,-1.69,-10.25,10.54
16.604793071746826,-8.84,-5.74,-10.97,15.21
16.62004518508911,-7.73,-0.47,-2.4,8.1
16.624646186828613,-3.91,6.75,3.0,8.35
16.635813236236572,-0.59,11.44,0.13,11.45
16.644996166229248,5.62,12.07,-3.19,13.69
16.665651321411133,6.66,7.86,-6.73,12.3
16.66867733001709,0.25,0.0,-4.04,4.04
16.67506504058838,-3.81,-3.13,-3.49,6.04
16.685087203979492,-2.72,-1.01,-5.14,5.9
16.695044994354248,-1.24,2.52,-5.82,6.46
16.70589303970337,-0.74,3.38,-5.85,6.79
16.720129013061523,0.32,1.82,-4.44,4.8
16.725171089172363,0.65,1.23,-2.73,3.06
16.73993420600891,0.23,2.06,-1.48,2.54
16.745025157928467,-0.12,2.27,0.0,2.27
16.770066261291504,-0.39,1.24,1.02,1.65
16.77372932434082,-0.61,-0.02,1.1,1.25
16.776225090026855,-0.25,-0.88,0.82,1.22
16.78531813621521,0.56,-1.34,0.46,1.52
16.795586109161377,0.98,-1.54,0.1,1.82
16.805368185043335,1.08,-1.64,-0.18,1.97
16.819788217544556,1.18,-1.77,0.07,2.12
16.82547903060913,1.0,-1.65,0.38,1.96
16.836303234100342,0.68,-1.52,0.58,1.76
16.845580101013184,0.58,-1.58,1.25,2.09
16.870123147964478,0.84,-1.67,1.62,2.47
16.873128175735474,1.63,-1.91,0.59,2.57
16.875686168670654,2.82,-1.7,0.55,3.33
16.885754108428955,3.66,-1.42,-0.21,3.93
16.895823001861572,3.99,-1.57,-2.41,4.91
16.90589427947998,3.9,-1.41,-2.82,5.01
16.915796279907227,3.52,-1.0,-2.55,4.46
16.92644500732422,3.18,-0.84,-1.79,3.74
16.941009998321533,3.01,-0.75,0.14,3.1
16.946625232696533,2.82,-0.4,2.32,3.67
16.965830326080322,2.84,0.08,3.69,4.65
16.96835231781006,3.69,0.85,5.5,6.67
16.976059198379517,4.87,2.13,5.73,7.81
16.98608922958374,5.14,3.67,2.62,6.83
16.99614906311035,5.0,5.13,-1.58,7.33
17.00669527053833,5.06,6.34,-4.27,9.16
17.01990818977356,3.02,6.35,-5.5,8.92
17.026271104812622,-0.24,3.95,-4.58,6.05
17.041036128997803,-2.42,0.75,-2.78,3.76
17.04621720314026,-1.63,-0.55,1.2,2.09
17.06678819656372,2.58,0.37,0.13,2.6
17.069478034973145,6.79,2.24,-4.6,8.5
17.076261043548584,6.94,2.79,-6.22,9.72
17.086315155029297,3.37,1.26,-4.36,5.65
17.09673309326172,-0.78,-0.33,-1.28,1.53
17.106435298919678,-3.79,-0.69,1.08,4.0
17.117263317108154,-5.42,-0.09,2.23,5.86
17.12733507156372,-5.87,1.08,2.32,6.4
17.140982151031494,-5.21,1.77,1.09,5.6
17.146929264068604,-3.66,1.26,-0.75,3.94
17.1700541973114,-1.99,0.04,-2.52,3.21
17.17270517349243,-0.72,-1.33,-3.6,3.9
17.17668104171753,-0.48,-2.52,-4.46,5.14
17.18669033050537,-1.35,-3.31,-5.89,6.88
17.19679021835327,-2.12,-3.78,-5.47,6.97
17.2070631980896,-2.59,-3.6,-4.08,6.02
17.22066617012024,-2.95,-2.78,-3.18,5.15
17.2273051738739,-3.39,-2.15,-3.08,5.05
17.240281105041504,-3.72,-2.01,-3.65,5.58
17.246931076049805,-3.67,-2.59,-4.45,6.32
17.271125316619873,-3.32,-3.77,-5.54,7.47
17.27380919456482,-2.89,-4.69,-6.63,8.62
17.276954174041748,-2.19,-3.84,-6.66,7.99
17.287070274353027,-1.07,-0.46,-5.72,5.83
17.297235012054443,0.71,2.91,-1.55,3.37
17.307311058044434,4.29,10.82,12.35,16.97
17.318068981170654,3.21,14.7,1.85,15.15
17.3271701335907,0.1,4.76,-7.94,9.25
17.34111714363098,-0.14,-5.7,-0.5,5.72
17.34730625152588,-1.86,-8.72,1.45,9.03
17.367549180984497,-4.53,-5.33,-4.7,8.42
17.370596170425415,-4.87,-0.6,-5.66,7.49
17.3772451877594,-3.28,3.34,-1.65,4.96
17.387453079223633,-2.18,5.87,1.86,6.53
17.397603034973145,-3.47,5.14,2.05,6.53
17.40753698348999,-5.06,1.89,-0.51,5.42
17.421617031097412,-4.16,-1.25,-1.73,4.67
17.427553176879883,-1.31,-2.43,-0.67,2.84
17.438316106796265,1.23,-1.4,0.33,1.89
17.451817989349365,1.76,0.84,-0.59,2.03
17.4677791595459,0.8,1.95,-1.72,2.72
17.470425128936768,-0.18,0.88,-0.87,1.25
17.477662086486816,-0.85,-0.76,0.74,1.35
17.487847328186035,-1.54,-1.18,1.15,2.25
17.497868061065674,-2.17,-0.3,0.77,2.32
17.507812023162842,-2.24,0.59,1.24,2.62
17.518530130386353,-1.71,0.78,2.05,2.78
17.527828216552734,-1.03,0.49,1.84,2.16
17.54186511039734,-0.57,0.12,0.62,0.85
17.547964096069336,-0.21,-0.3,-0.43,0.56
17.57097816467285,0.15,-0.43,-0.9,1.0
17.57393503189087,0.8,-0.67,-0.96,1.41
17.577867031097412,1.78,-0.92,-0.94,2.21
17.58806324005127,1.84,-0.23,-1.2,2.2
17.598050117492676,0.48,0.57,-1.73,1.88
17.6081862449646,-0.73,0.72,-1.57,1.87
17.621987104415894,-0.75,0.45,-0.16,0.88
17.628050327301025,-0.16,0.0,0.32,0.35
17.642332077026367,0.01,-0.14,0.05,0.14
17.6478853225708,0.01,-0.45,-0.3,0.54
17.667911052703857,0.14,-0.6,-0.37,0.71
17.67083215713501,0.22,-0.38,-0.37,0.57
17.678246021270752,-0.29,0.42,0.29,0.58
17.68844509124756,-0.48,0.91,0.36,1.09
17.69855833053589,-0.73,0.26,-0.35,0.85
17.70839810371399,-0.74,-0.44,0.28,0.9
17.722551107406616,-0.35,-0.04,0.47,0.58
17.728578090667725,-0.05,-0.01,0.04,0.06
17.742370128631592,0.02,-0.04,-0.16,0.16
17.749157190322876,0.32,0.42,-0.62,0.81
17.771127223968506,0.1,-0.37,-0.63,0.73
17.77364420890808,0.11,-0.74,-0.63,0.97
17.77866816520691,0.4,-0.41,-1.08,1.22
17.78865909576416,0.66,0.05,-1.28,1.44
17.79858922958374,0.45,0.19,-1.11,1.21
17.808757305145264,-0.12,0.17,-0.9,0.92
17.823055267333984,-0.41,0.26,-0.8,0.93
17.829509258270264,-0.34,0.28,-0.69,0.81
17.839482307434082,-0.23,0.02,-0.52,0.56
17.851526260375977,-0.23,0.01,0.18,0.29
17.86909532546997,-0.38,0.29,0.31,0.56
17.871599197387695,-0.63,0.24,0.33,0.75
17.87890625,-0.62,0.13,0.35,0.72
17.889703273773193,-0.43,0.07,0.13,0.45
17.899047136306763,-0.11,-0.04,-0.18,0.21
17.909074306488037,0.17,-0.37,-0.18,0.44
17.91948413848877,0.34,-0.54,-0.01,0.63
17.93536901473999,0.43,-0.52,-0.16,0.69
17.940092086791992,0.46,-0.44,-0.03,0.63
17.94999122619629,0.39,-0.26,-0.17,0.49
17.969107151031494,0.19,-0.22,-0.15,0.32
17.971745014190674,-0.11,-0.28,0.15,0.33
17.97934103012085,-0.39,-0.23,0.14,0.47
17.989323139190674,-0.4,-0.05,-0.09,0.41
17.99940824508667,-0.34,0.09,-0.14,0.37
18.009080171585083,-0.34,0.09,0.0,0.35
18.020339012145996,-0.35,0.07,0.14,0.38
18.03569507598877,-0.34,0.17,-0.13,0.4
