Timestamp,gx,gy,gz,ax,ay,az
2020-12-01 18:38:34.4560,0.05018087849020958,-0.5907314419746399,-1.1300660371780396,0.5777587890625,-0.81097412109375,-0.011260986328125
2020-12-01 18:38:34.4720,-0.01451023295521736,-0.8069958686828613,-1.0223037004470823,0.5777587890625,-0.81097412109375,-0.011260986328125
2020-12-01 18:38:34.4890,-0.08930697292089462,-0.314299076795578,-1.3870559930801392,0.126434326171875,-0.9120330810546876,0.1831817626953125
2020-12-01 18:38:34.5060,-0.031733427196741104,0.2297373265028,-1.6455882787704468,-0.03057861328125,-0.979248046875,0.306915283203125
2020-12-01 18:38:34.5380,0.03626586124300957,0.4886610209941864,-1.78648042678833,0.308624267578125,-1.14739990234375,0.2642822265625
2020-12-01 18:38:34.5560,0.04998966306447983,0.07253491878509521,-1.8758978843688965,0.308624267578125,-1.14739990234375,0.2642822265625
2020-12-01 18:38:34.5730,0.08105996251106262,-0.4398860335350037,-1.7679991722106934,0.4537200927734375,-1.2381744384765625,0.1563568115234375
2020-12-01 18:38:34.5890,0.15737417340278625,-0.8727517127990723,-1.7845512628555298,0.2765350341796875,-1.2359771728515625,-0.002471923828125
2020-12-01 18:38:34.6060,0.1242298036813736,-1.202950954437256,-1.864442586898804,0.094329833984375,-1.1941680908203125,-0.0553741455078125
2020-12-01 18:38:34.6390,-0.1192699372768402,-1.1398526430130005,-2.0623161792755127,-0.140411376953125,-1.7559814453125,-0.0364837646484375
2020-12-01 18:38:34.6560,-0.1788182109594345,-2.0116198062896733,-1.9353446960449217,-0.140411376953125,-1.7559814453125,-0.0364837646484375
2020-12-01 18:38:34.6720,-0.3045127689838409,-1.2093994617462158,-2.51274037361145,-0.147430419921875,-1.8277587890625,0.3179931640625
2020-12-01 18:38:34.6900,-0.16608618199825287,-2.352903127670288,-2.53826642036438,0.1672821044921875,-2.015228271484375,0.1775054931640625
2020-12-01 18:38:34.7060,0.14930079877376554,-2.8489091396331787,-1.9805444478988647,0.129791259765625,-1.84722900390625,0.3169708251953125
2020-12-01 18:38:34.7390,0.301070898771286,-2.1639163494110107,-1.7241603136062622,-0.238983154296875,-1.23736572265625,0.22882080078125
2020-12-01 18:38:34.7560,0.6143497228622437,-0.9285590648651124,-1.8338223695755005,-0.238983154296875,-1.23736572265625,0.22882080078125
2020-12-01 18:38:34.7720,0.6629406809806824,-0.23815424740314484,-1.3366620540618896,0.720458984375,-1.2010650634765625,0.50445556640625
2020-12-01 18:38:34.7890,0.6178663969039917,-2.520142078399658,0.3342006206512451,0.762237548828125,-1.2502593994140625,0.0291595458984375
2020-12-01 18:38:34.8060,0.5193968415260315,-2.0887284278869633,1.144978642463684,0.0466156005859375,-0.7323150634765625,0.0338287353515625
2020-12-01 18:38:34.8390,0.3097650408744812,0.10352426022291183,1.534998059272766,-0.321197509765625,-0.444000244140625,0.0840606689453125
2020-12-01 18:38:34.8560,0.1556231528520584,2.9155468940734863,1.9595751762390137,-0.321197509765625,-0.444000244140625,0.0840606689453125
2020-12-01 18:38:34.8720,0.037869352847337716,4.014562129974365,2.2915291786193848,0.0300750732421875,-0.6384124755859375,0.030426025390625
2020-12-01 18:38:34.8890,-0.12451822310686113,3.8270397186279297,2.7165169715881348,0.3650054931640625,-0.699737548828125,0.072540283203125
2020-12-01 18:38:34.9060,-0.34023454785346985,2.8245198726654053,3.3497331142425537,0.4799346923828125,-0.6701812744140625,0.0423126220703125
2020-12-01 18:38:34.9380,-0.7136571407318115,1.6489566564559937,3.8297104835510254,0.3769683837890625,-0.619659423828125,0.108306884765625
2020-12-01 18:38:34.9560,-0.922021508216858,0.8829337954521179,4.136137008666991,0.3080902099609375,-0.6849365234375,0.1530303955078125
2020-12-01 18:38:34.9720,-0.8816077709197998,0.5499222278594971,4.584266185760498,0.3598480224609375,-0.8140411376953125,0.1964111328125
2020-12-01 18:38:34.9890,-0.7990849614143372,0.7547105550765991,4.9891934394836435,0.33380126953125,-0.8572540283203125,0.279327392578125
2020-12-01 18:38:35.0060,-0.7170912623405457,1.042776107788086,5.2982611656188965,0.3494720458984375,-1.0153045654296875,0.3402252197265625
2020-12-01 18:38:35.0390,-0.4968017637729645,0.7014747858047485,5.527237892150879,0.5412445068359375,-1.223114013671875,0.3134765625
2020-12-01 18:38:35.0560,-0.13745586574077606,0.3739336431026459,5.36610221862793,0.6256561279296875,-1.2420196533203125,0.257080078125
2020-12-01 18:38:35.0730,0.004660798236727714,0.9609734416007996,4.775712490081787,0.7339019775390625,-1.4456024169921875,0.550750732421875
2020-12-01 18:38:35.0890,0.25579795241355896,1.2484662532806396,3.9979774951934814,1.0407867431640625,-1.4529876708984375,0.4522247314453125
2020-12-01 18:38:35.1060,0.4652025699615479,0.7864146828651428,3.0835533142089844,1.4707183837890625,-1.305938720703125,0.400146484375
2020-12-01 18:38:35.1390,0.5199435949325562,-0.10440923273563384,1.6607136726379397,1.6934356689453125,-1.043731689453125,0.3975677490234375
2020-12-01 18:38:35.1560,0.4577822089195252,-0.02715811692178249,0.2774044573307037,1.4268646240234375,-0.84576416015625,0.405609130859375
2020-12-01 18:38:35.1730,0.3882438838481903,0.18245768547058105,-0.9202688932418824,1.3800811767578125,-1.0710906982421875,0.221405029296875
2020-12-01 18:38:35.1890,0.296329140663147,0.19760042428970334,-1.9340083599090576,1.421112060546875,-0.92889404296875,0.160858154296875
2020-12-01 18:38:35.2060,1.4457638263702393,-0.7190641164779663,-2.3910048007965092,1.4038848876953125,-0.9976043701171876,-0.07293701171875
2020-12-01 18:38:35.2380,-1.2768592834472656,-2.4367129802703857,-2.2113704681396484,-0.186126708984375,-1.7100067138671875,0.7539520263671875
2020-12-01 18:38:35.2560,0.9469223618507384,2.1963276863098145,-4.123124122619629,-1.1962127685546875,-3.626434326171875,-0.8989715576171875
2020-12-01 18:38:35.2730,0.4673693180084229,2.4166502952575684,-2.4332735538482666,0.203216552734375,-0.8547210693359375,0.6363677978515625
2020-12-01 18:38:35.2890,0.8418808579444885,1.3850584030151367,-1.772417068481445,0.7335052490234375,0.0975341796875,-0.708221435546875
2020-12-01 18:38:35.3060,0.21869905292987826,-1.0483245849609375,-1.7673442363739014,0.7081146240234375,-0.239837646484375,0.3507232666015625
2020-12-01 18:38:35.3380,0.2719494998455048,-2.2250356674194336,-0.7731351256370544,0.3772125244140625,-1.7838897705078125,0.2277069091796875
2020-12-01 18:38:35.3560,0.4551605880260468,-1.0041794776916504,-0.4224106371402741,0.413055419921875,-1.8276824951171875,0.351959228515625
2020-12-01 18:38:35.3720,0.17446820437908173,-1.273874044418335,-0.5177779197692871,-0.0468902587890625,-0.672607421875,0.1848297119140625
2020-12-01 18:38:35.3890,-0.1190909668803215,0.11749839782714845,-0.5212200284004211,-0.2454071044921875,-0.8547210693359375,0.4337158203125
2020-12-01 18:38:35.4060,-0.1266961544752121,0.5137008428573608,-0.4375389814376831,-0.037384033203125,-1.263885498046875,0.363983154296875
2020-12-01 18:38:35.4380,-0.1004405841231346,-0.2404504269361496,-0.3050355315208435,0.28094482421875,-0.98626708984375,0.1240234375
2020-12-01 18:38:35.4560,-0.1316850632429123,-0.38630855083465576,-0.321923702955246,0.133026123046875,-0.9102630615234376,0.1094970703125
2020-12-01 18:38:35.4720,-0.08006687462329865,-0.09585835039615632,-0.4612797498703003,-0.0777130126953125,-0.9521026611328124,0.1377105712890625
2020-12-01 18:38:35.4890,-0.06919558346271515,0.14480246603488922,-0.6271677613258362,-0.0613250732421875,-0.880523681640625,0.195831298828125
2020-12-01 18:38:35.5060,-0.047383494675159454,0.16961565613746646,-0.7216354012489319,0.079010009765625,-0.86871337890625,0.228179931640625
2020-12-01 18:38:35.5380,-0.043179161846637726,-0.07170241326093674,-0.7694199681282043,0.1608428955078125,-0.9142608642578124,0.1799774169921875
2020-12-01 18:38:35.5560,-0.06164791807532311,-0.17538167536258698,-0.8894140124320984,0.1074066162109375,-0.9664764404296876,0.150238037109375
2020-12-01 18:38:35.5720,0.04302310198545456,-0.12536191940307614,-0.950265407562256,0.029144287109375,-0.9652862548828124,0.1266326904296875
2020-12-01 18:38:35.5890,-0.042929358780384064,0.4837434887886048,-1.0972319841384888,0.024993896484375,-0.9350128173828124,0.302581787109375
2020-12-01 18:38:35.6060,-0.06420481950044632,0.2104312628507614,-0.922695815563202,0.339996337890625,-0.9645233154296876,0.1873321533203125
2020-12-01 18:38:35.6380,-0.0902278944849968,-0.12953908741474152,-0.790955662727356,0.4682464599609375,-0.9795684814453124,0.151611328125
2020-12-01 18:38:35.6560,-0.043126165866851814,-0.3719069957733154,-0.6706627607345581,0.368865966796875,-1.0183258056640625,0.0605010986328125
2020-12-01 18:38:35.6720,-0.08802440017461778,-0.15202122926712036,-0.8115360140800476,0.22509765625,-0.9933624267578124,0.134979248046875
2020-12-01 18:38:35.6890,-0.12165878713130952,0.1238311305642128,-1.020374774932861,0.0429229736328125,-1.0426483154296875,0.2227020263671875
2020-12-01 18:38:35.7060,-0.12165878713130952,0.1238311305642128,-1.020374774932861,0.046112060546875,-1.1270904541015625,0.21221923828125
2020-12-01 18:38:35.7380,-0.045827411115169525,0.3718547821044922,-1.4162123203277588,0.10302734375,-1.167144775390625,0.1434478759765625
2020-12-01 18:38:35.7560,0.04890868812799454,-0.013515275903046131,-1.5665496587753296,0.1898345947265625,-1.1698760986328125,0.1053619384765625
2020-12-01 18:38:35.7730,0.1054483950138092,-0.20757903158664706,-1.7045540809631348,0.18768310546875,-1.186309814453125,0.12432861328125
2020-12-01 18:38:35.7890,0.15294614434242249,-0.2948601245880127,-1.9059349298477173,0.14569091796875,-1.2198486328125,0.1634979248046875
2020-12-01 18:38:35.8060,0.15294614434242249,-0.2948601245880127,-1.9059349298477173,0.1927642822265625,-1.1834869384765625,0.1204681396484375
2020-12-01 18:38:35.8390,0.10466516017913817,-1.033569574356079,-2.0487868785858154,0.10467529296875,-1.310302734375,0.0730133056640625
2020-12-01 18:38:35.8560,0.1611417531967163,-1.6015031337738037,-2.2568180561065674,0.0062713623046875,-1.5146331787109375,0.2062225341796875
2020-12-01 18:38:35.8720,0.09011045098304747,-2.133075714111328,-2.3777801990509038,-0.3441925048828125,-1.6358642578125,0.097625732421875
2020-12-01 18:38:35.8890,0.14744405448436734,-3.166985511779785,-2.407710552215576,-0.358673095703125,-1.7193756103515625,-0.1400604248046875
2020-12-01 18:38:35.9060,0.14744405448436734,-3.166985511779785,-2.407710552215576,-0.4021759033203125,-1.467864990234375,0.147735595703125
2020-12-01 18:38:35.9390,-0.2984921634197235,-2.1113975048065186,-2.5762252807617188,-0.0622100830078125,-1.624847412109375,0.2802886962890625
2020-12-01 18:38:35.9560,0.04772597551345825,-0.4924009144306183,-2.3385426998138428,0.032012939453125,-1.73486328125,0.2848358154296875
2020-12-01 18:38:35.9730,0.1369892805814743,0.0652218833565712,-2.1963608264923096,0.1285247802734375,-1.3877105712890625,0.259063720703125
2020-12-01 18:38:35.9890,0.4138895869255066,0.2500537931919098,-1.4793628454208374,0.385498046875,-1.17523193359375,0.2839202880859375
2020-12-01 18:38:36.0060,0.4138895869255066,0.2500537931919098,-1.4793628454208374,0.6403045654296875,-1.0117034912109375,0.51324462890625
2020-12-01 18:38:36.0380,0.3574143350124359,-0.4775537848472595,0.312541663646698,0.2906646728515625,-0.8054046630859375,0.0829315185546875
2020-12-01 18:38:36.0560,0.26196342706680303,-0.21367047727108,1.0743782520294192,-0.012451171875,-0.527099609375,0.0105438232421875
2020-12-01 18:38:36.0730,0.15401805937290192,1.0187709331512451,1.686213135719299,-0.1205596923828125,-0.4075927734375,0.0866851806640625
2020-12-01 18:38:36.0890,0.03957803547382355,1.5855462551116943,2.1591572761535645,-0.02008056640625,-0.552215576171875,0.027496337890625
2020-12-01 18:38:36.1060,0.03957803547382355,1.5855462551116943,2.1591572761535645,-0.02008056640625,-0.552215576171875,0.027496337890625
2020-12-01 18:38:36.1390,-0.2133508920669556,1.383394479751587,3.149525880813598,0.272216796875,-0.7316131591796875,-0.045379638671875
2020-12-01 18:38:36.1560,-0.4449961185455322,1.2201772928237915,3.705754995346069,0.2880401611328125,-0.6626739501953125,-0.03375244140625
2020-12-01 18:38:36.1730,-0.6619521379470825,1.1808536052703855,4.212292671203613,0.2724609375,-0.6545257568359375,0.032196044921875
2020-12-01 18:38:36.1890,-0.781774640083313,1.3822029829025269,4.664419174194336,0.2900543212890625,-0.6948089599609375,0.0919189453125
2020-12-01 18:38:36.2060,-0.781774640083313,1.3822029829025269,4.664419174194336,0.2900543212890625,-0.6948089599609375,0.0919189453125
2020-12-01 18:38:36.2380,-0.8907232284545898,2.364694595336914,5.444870948791504,0.2556610107421875,-0.8926544189453125,0.14935302734375
2020-12-01 18:38:36.2560,-0.90595281124115,2.1840837001800537,5.832295894622803,0.3796844482421875,-1.18023681640625,0.128936767578125
2020-12-01 18:38:36.2730,-0.8656490445137024,1.264692306518555,5.968977928161621,0.609344482421875,-1.553558349609375,0.446563720703125
2020-12-01 18:38:36.2890,-0.8656490445137024,1.264692306518555,5.968977928161621,0.678497314453125,-1.4683685302734375,0.3914642333984375
2020-12-01 18:38:36.3060,-0.4376990497112274,0.577191174030304,5.575121879577637,0.678497314453125,-1.4683685302734375,0.3914642333984375
2020-12-01 18:38:36.3390,0.7121487259864807,-0.6779609322547913,3.0238220691680913,1.765380859375,-1.4701995849609375,0.434967041015625
2020-12-01 18:38:36.3560,0.428062915802002,-1.683179259300232,1.1125000715255735,2.0186920166015625,-1.0069580078125,0.126800537109375
2020-12-01 18:38:36.3730,0.30193430185317993,-0.5820306539535522,-0.4747105836868286,1.6842193603515625,-0.903289794921875,0.3712615966796875
2020-12-01 18:38:36.3890,0.30193430185317993,-0.5820306539535522,-0.4747105836868286,1.3988494873046875,-0.8055877685546875,0.2707977294921875
2020-12-01 18:38:36.4060,0.9424522519111632,1.0505390167236328,-2.246102333068848,1.3988494873046875,-0.8055877685546875,0.2707977294921875
2020-12-01 18:38:36.4380,-0.2916041612625122,-4.587101459503174,-2.0492322444915767,0.8494415283203125,-2.223876953125,-0.393218994140625
2020-12-01 18:38:36.4560,0.3883109986782074,-2.3687455654144287,-3.526747465133667,0.14813232421875,-2.903472900390625,-0.0171051025390625
2020-12-01 18:38:36.4730,0.9284176230430604,2.6876862049102783,-1.6737728118896484,0.390655517578125,-1.09075927734375,0.2238311767578125
2020-12-01 18:38:36.4890,0.9284176230430604,2.6876862049102783,-1.6737728118896484,-0.52984619140625,-0.047454833984375,-0.1340789794921875
2020-12-01 18:38:36.5060,0.4632206559181213,1.086379885673523,-2.314247131347656,-0.52984619140625,-0.047454833984375,-0.1340789794921875
2020-12-01 18:38:36.5390,0.6300786137580872,-1.1469496488571167,-0.7099449634552002,0.90606689453125,-1.7872467041015625,0.0587005615234375
2020-12-01 18:38:36.5560,0.4619295597076416,-2.0625245571136475,-0.06898359209299088,0.7311248779296875,-1.0746917724609375,0.165130615234375
2020-12-01 18:38:36.5730,0.09649351239204408,-1.6728601455688477,-0.2341616302728653,-0.053497314453125,-0.76409912109375,0.5229949951171875
2020-12-01 18:38:36.5890,0.09649351239204408,-1.6728601455688477,-0.2341616302728653,-0.2872314453125,-1.121063232421875,0.6790618896484375
2020-12-01 18:38:36.6060,-0.08068845421075821,0.33066871762275696,-0.1242804080247879,-0.2872314453125,-1.121063232421875,0.6790618896484375
2020-12-01 18:38:36.6380,-0.14655348658561707,-0.4698261022567749,0.008861135691404344,0.303558349609375,-1.02435302734375,0.043701171875
2020-12-01 18:38:36.6560,-0.08949126303195952,-0.6885970234870911,0.19256998598575592,0.1788177490234375,-1.1490478515625,0.147186279296875
2020-12-01 18:38:36.6730,-0.06727757304906845,-0.4163601994514465,-0.20993351936340326,-0.1988983154296875,-0.961029052734375,0.1602630615234375
2020-12-01 18:38:36.6890,-0.06727757304906845,-0.4163601994514465,-0.20993351936340326,-0.1988983154296875,-0.961029052734375,0.1602630615234375
2020-12-01 18:38:36.7060,-0.07321056723594667,0.04056606814265251,-0.46317696571350103,-0.098663330078125,-0.9063873291015624,0.2734375
2020-12-01 18:38:36.7390,-0.12497149407863616,-0.2679531574249268,-0.7771530151367188,0.12945556640625,-0.797454833984375,0.2444610595703125
2020-12-01 18:38:36.7560,-0.18618744611740112,0.07381244003772736,-1.0482622385025024,0.05303955078125,-0.781982421875,0.3786163330078125
2020-12-01 18:38:36.7730,-0.14599289000034332,0.08690720051527022,-1.1196589469909668,0.1204071044921875,-0.831207275390625,0.3086395263671875
2020-12-01 18:38:36.7900,-0.14599289000034332,0.08690720051527022,-1.1196589469909668,0.1204071044921875,-0.831207275390625,0.3086395263671875
2020-12-01 18:38:36.8060,-0.16501851379871368,0.209696501493454,-1.1539641618728638,0.1559906005859375,-0.844757080078125,0.2330780029296875
2020-12-01 18:38:36.8380,-0.15585032105445862,0.09204656630754472,-1.086516499519348,0.412109375,-0.9781494140625,0.1755828857421875
2020-12-01 18:38:36.8560,-0.13623879849910736,-0.291436105966568,-1.040957808494568,0.38555908203125,-0.996551513671875,0.07568359375
2020-12-01 18:38:36.8730,-0.13623879849910736,-0.291436105966568,-1.040957808494568,0.155731201171875,-1.016571044921875,0.1046142578125
2020-12-01 18:38:36.8890,-0.12220580130815505,-0.16676048934459686,-1.3015038967132568,0.155731201171875,-1.016571044921875,0.1046142578125
2020-12-01 18:38:36.9060,-0.07990548759698868,0.1850031465291977,-1.5091660022735596,-0.035003662109375,-1.134918212890625,0.1872100830078125
2020-12-01 18:38:36.9390,0.038305044174194336,-0.14816735684871676,-1.8534400463104248,0.278656005859375,-1.1761322021484375,0.1150665283203125
2020-12-01 18:38:36.9560,0.06350520253181458,-0.5626846551895142,-2.0298736095428467,0.218719482421875,-1.1079864501953125,0.079132080078125
2020-12-01 18:38:36.9730,0.06350520253181458,-0.5626846551895142,-2.0298736095428467,0.0069122314453125,-1.1306304931640625,0.200958251953125
2020-12-01 18:38:36.9890,0.14037415385246274,-0.5382980704307556,-2.2936887741088867,0.0069122314453125,-1.1306304931640625,0.200958251953125
2020-12-01 18:38:37.0060,0.20236854255199432,-1.068398118019104,-2.367492437362671,-0.00347900390625,-1.194000244140625,0.104217529296875
2020-12-01 18:38:37.0380,-0.015114503912627697,-2.2066426277160645,-2.62698745727539,-0.2477264404296875,-1.6714935302734375,-0.066741943359375
2020-12-01 18:38:37.0560,-0.26030802726745605,-1.82195508480072,-2.850666046142578,-0.4097900390625,-1.607391357421875,0.23321533203125
2020-12-01 18:38:37.0730,-0.26030802726745605,-1.82195508480072,-2.850666046142578,-0.0735931396484375,-1.799591064453125,0.1017608642578125
2020-12-01 18:38:37.0890,-0.3380448818206787,-2.3778345584869385,-3.048655271530152,-0.0735931396484375,-1.799591064453125,0.1017608642578125
2020-12-01 18:38:37.1070,-0.20429614186286926,-2.0718975067138667,-2.7117600440979004,-0.0269927978515625,-2.0491943359375,0.524993896484375
2020-12-01 18:38:37.1390,0.4899739623069763,0.3689016103744507,-2.207146644592285,0.016815185546875,-1.3989715576171875,0.448394775390625
2020-12-01 18:38:37.1560,0.4839637577533722,1.2126046419143677,-1.4430545568466189,0.492767333984375,-1.231903076171875,0.565216064453125
2020-12-01 18:38:37.1730,0.4839637577533722,1.2126046419143677,-1.4430545568466189,0.85595703125,-1.10101318359375,0.1961669921875
2020-12-01 18:38:37.1890,0.5288233757019043,-0.04007018730044365,-0.34092456102371216,0.85595703125,-1.10101318359375,0.1961669921875
2020-12-01 18:38:37.2060,0.3000836670398712,-0.9949473738670348,1.1047580242156982,0.398101806640625,-0.66900634765625,0.0463104248046875
2020-12-01 18:38:37.2390,-0.014550979249179363,1.3319970369338991,2.1693115234375,-0.2471771240234375,-0.2691497802734375,0.2883453369140625
2020-12-01 18:38:37.2560,-0.11868830025196075,2.036763906478882,2.715063095092773,0.0885467529296875,-0.4602813720703125,0.1544189453125
2020-12-01 18:38:37.2720,-0.11868830025196075,2.036763906478882,2.715063095092773,0.0885467529296875,-0.4602813720703125,0.1544189453125
2020-12-01 18:38:37.2890,-0.2812215387821197,1.961111068725586,3.244139671325684,0.35394287109375,-0.5820770263671875,0.078765869140625
2020-12-01 18:38:37.3060,-0.4214079678058624,1.662779450416565,3.6308214664459233,0.423980712890625,-0.635162353515625,0.003204345703125
2020-12-01 18:38:37.3390,-0.8203499913215637,1.7225115299224854,4.2703046798706055,0.3175201416015625,-0.7183837890625,0.12078857421875
2020-12-01 18:38:37.3560,-0.8203499913215637,1.7225115299224854,4.2703046798706055,0.4658203125,-0.833831787109375,0.1888885498046875
2020-12-01 18:38:37.3730,-0.9331383705139159,1.5297160148620603,4.55402946472168,0.4658203125,-0.833831787109375,0.1888885498046875
2020-12-01 18:38:37.3890,-0.9403795003890992,1.6039079427719116,4.851377010345459,0.5186920166015625,-0.9189605712890624,0.229400634765625
2020-12-01 18:38:37.4060,-0.9363099336624146,1.6391175985336304,5.005054473876953,0.4735260009765625,-0.9436492919921876,0.2491912841796875
2020-12-01 18:38:37.4250,-0.9189879298210144,1.3319275379180908,5.019000053405762,0.561767578125,-1.0833892822265625,0.2647857666015625
2020-12-01 18:38:37.4560,-0.7907894849777222,0.7594081163406372,5.094403266906738,0.9792938232421876,-1.3725738525390625,0.4522857666015625
2020-12-01 18:38:37.4730,-0.6306125521659851,0.28321999311447144,4.754180908203125,0.9792938232421876,-1.3725738525390625,0.4522857666015625
2020-12-01 18:38:37.4890,-0.3250971436500549,0.5561404824256897,3.8987340927124015,0.960540771484375,-1.2517547607421875,0.489410400390625
2020-12-01 18:38:37.5060,-0.027608724310994148,0.9138381481170654,2.7774152755737305,1.095794677734375,-1.3358306884765625,0.465179443359375
2020-12-01 18:38:37.5390,0.2500607073307037,0.5802010893821716,0.2142726182937622,1.57806396484375,-0.884521484375,0.2733001708984375
2020-12-01 18:38:37.5560,0.2500607073307037,0.5802010893821716,0.2142726182937622,1.613525390625,-0.8186187744140625,0.2172698974609375
2020-12-01 18:38:37.5730,0.34323087334632874,-0.1265086680650711,-0.8070778846740723,1.613525390625,-0.8186187744140625,0.2172698974609375
2020-12-01 18:38:37.5890,0.4149037301540375,0.007005977910012007,-1.5512990951538086,1.32904052734375,-0.80670166015625,0.20269775390625
2020-12-01 18:38:37.6060,1.0425740480422974,-0.5634590983390808,-2.0179505348205566,1.037811279296875,-0.83349609375,0.500823974609375
2020-12-01 18:38:37.6390,0.911939024925232,1.1963430643081665,-3.676126956939697,-0.703155517578125,-3.33868408203125,-0.51165771484375
2020-12-01 18:38:37.6560,0.911939024925232,1.1963430643081665,-3.676126956939697,0.1485443115234375,-0.6774444580078125,0.49786376953125
2020-12-01 18:38:37.6730,0.460785984992981,1.208549976348877,-2.384625196456909,0.1485443115234375,-0.6774444580078125,0.49786376953125
2020-12-01 18:38:37.6890,0.5969653725624084,0.8235053420066833,-1.812222003936768,0.523345947265625,0.1609649658203125,-0.356170654296875
2020-12-01 18:38:37.7060,0.2812950611114502,-0.38358041644096375,-1.4256902933120728,0.53802490234375,-0.3989410400390625,0.0192413330078125
2020-12-01 18:38:37.7390,0.6181356906890869,-0.8834067583084106,-0.3625409007072449,0.50531005859375,-1.68731689453125,0.1744232177734375
2020-12-01 18:38:37.7560,0.6181356906890869,-0.8834067583084106,-0.3625409007072449,0.1739959716796875,-0.7528228759765625,0.0975494384765625
2020-12-01 18:38:37.7730,0.3993069231510161,-1.7928138971328735,-0.19302085041999814,0.1739959716796875,-0.7528228759765625,0.0975494384765625
2020-12-01 18:38:37.7890,0.1031695306301117,-0.6630722284317017,-0.2919759154319763,-0.16522216796875,-0.8852996826171875,0.4692535400390625
2020-12-01 18:38:37.8060,0.03736681118607521,0.044131241738796234,-0.2777551710605621,-0.1680145263671875,-1.2472686767578125,0.3864288330078125
2020-12-01 18:38:37.8390,-0.10217271000146866,0.03938549011945725,-0.3557620942592621,0.150177001953125,-0.9385833740234376,0.1724700927734375
2020-12-01 18:38:37.8560,-0.0793217197060585,-0.44575750827789307,-0.2315112501382828,0.150177001953125,-0.9385833740234376,0.1724700927734375
2020-12-01 18:38:37.8730,-0.04621463268995285,-0.3901301920413971,-0.35590270161628723,0.0189666748046875,-1.06549072265625,0.20196533203125
2020-12-01 18:38:37.8890,-0.016985641792416573,-0.05543582886457443,-0.4942014813423157,-0.044464111328125,-0.98895263671875,0.168701171875
2020-12-01 18:38:37.9060,-0.023052588105201718,-0.12134507298469545,-0.5992512106895447,0.0426483154296875,-0.8773193359375,0.1580657958984375
2020-12-01 18:38:37.9390,-0.01889193244278431,-0.3040938377380371,-0.7145665884017944,-0.008026123046875,-0.91351318359375,0.2912445068359375
2020-12-01 18:38:37.9560,-0.06394249945878983,0.17956416308879852,-0.8986805081367493,-0.008026123046875,-0.91351318359375,0.2912445068359375
2020-12-01 18:38:37.9730,-0.026762105524539948,0.06706398725509644,-0.9561288952827454,0.17010498046875,-0.8946990966796875,0.1397705078125
2020-12-01 18:38:37.9890,-0.05350983142852783,-0.0996035560965538,-0.9293580055236816,0.3321075439453125,-0.8439483642578125,0.1864471435546875
2020-12-01 18:38:38.0060,-0.005602225661277771,-0.2189139723777771,-0.8569051027297974,0.2263031005859375,-0.901580810546875,0.1406097412109375
2020-12-01 18:38:38.0380,-0.0673726499080658,0.17966856062412262,-0.9458014369010924,0.2627410888671875,-1.03057861328125,0.181671142578125
2020-12-01 18:38:38.0560,-0.04422525316476822,0.13044989109039307,-0.9246178269386292,0.2627410888671875,-1.03057861328125,0.181671142578125
2020-12-01 18:38:38.0730,-0.06974552571773529,-0.022897325456142426,-0.9330419301986694,0.3510589599609375,-0.996734619140625,0.1521148681640625
2020-12-01 18:38:38.0890,-0.08207303285598755,-0.09449667483568193,-1.0563702583312988,0.215057373046875,-1.005584716796875,0.099273681640625
2020-12-01 18:38:38.1060,0.01689935475587845,0.05585980415344238,-1.2717217206954956,0.0629119873046875,-1.10418701171875,0.1341094970703125
2020-12-01 18:38:38.1390,0.08318676799535751,0.013888651505112648,-1.5737401247024536,0.1202239990234375,-1.0736541748046875,0.1094818115234375
2020-12-01 18:38:38.1560,0.1849211156368256,-0.22112919390201569,-1.8576855659484863,0.1202239990234375,-1.0736541748046875,0.1094818115234375
2020-12-01 18:38:38.1730,0.24471840262413025,-0.19100989401340485,-2.1546068191528316,0.069305419921875,-1.1420745849609375,0.2359466552734375
2020-12-01 18:38:38.1890,0.3231804668903351,-0.4624469876289368,-2.371941566467285,0.0676422119140625,-1.273712158203125,0.187652587890625
2020-12-01 18:38:38.2060,0.3960474729537964,-0.9691959619522096,-2.4353835582733154,0.13433837890625,-1.352630615234375,0.1211700439453125
2020-12-01 18:38:38.2390,0.3648456037044525,-1.3595645427703855,-2.6675033569335938,0.110931396484375,-1.5228729248046875,0.1503448486328125
2020-12-01 18:38:38.2560,0.10753817856311798,-1.910616755485535,-2.827418565750122,-0.224212646484375,-1.8599395751953125,0.0220184326171875
2020-12-01 18:38:38.2730,0.21585160493850708,-2.244467735290528,-3.11148738861084,-0.4336090087890625,-2.111358642578125,0.101776123046875
2020-12-01 18:38:38.2890,0.02039874903857708,-2.942276954650879,-3.005414724349976,-0.4613494873046875,-1.8802642822265625,0.112701416015625
2020-12-01 18:38:38.3060,-0.17812232673168182,-3.0720429420471187,-2.8313682079315186,-0.1074981689453125,-1.66986083984375,0.2979888916015625
2020-12-01 18:38:38.3250,0.31090646982192993,-1.1224840879440308,-2.6494691371917725,-0.0262908935546875,-1.8327484130859373,0.136016845703125
2020-12-01 18:38:38.3560,0.4637812376022339,0.2169134020805359,-2.3068058490753174,0.1908416748046875,-1.52716064453125,0.42547607421875
2020-12-01 18:38:38.3730,0.7924025654792786,0.4336060285568237,-1.3883713483810425,0.472381591796875,-1.1521453857421875,0.21044921875
2020-12-01 18:38:38.3890,0.6648866534233093,0.3816091418266296,-0.4054417610168457,0.81256103515625,-0.92071533203125,0.4797515869140625
2020-12-01 18:38:38.4060,0.532063901424408,-1.335801601409912,0.8636221289634705,0.3237457275390625,-0.7683868408203125,-0.172760009765625
2020-12-01 18:38:38.4390,0.3312724828720093,-0.7634321451187134,1.6174395084381104,-0.1474456787109375,-0.4105224609375,-0.0285797119140625
2020-12-01 18:38:38.4560,0.2790555953979492,0.4577627778053284,1.9896316528320312,-0.286651611328125,-0.3099365234375,0.0050506591796875
2020-12-01 18:38:38.4730,0.23153921961784366,1.1855496168136597,2.473618507385254,0.0535125732421875,-0.430877685546875,-0.032806396484375
2020-12-01 18:38:38.4890,0.07091119140386581,1.4515529870986938,3.0343952178955083,0.30072021484375,-0.5465240478515625,-0.0583343505859375
2020-12-01 18:38:38.5060,-0.10725854337215424,1.4563032388687134,3.508265256881714,0.368133544921875,-0.5674591064453125,-0.126373291015625
2020-12-01 18:38:38.5390,-0.349194198846817,1.4057687520980835,3.879014730453491,0.3113250732421875,-0.594696044921875,-0.0565032958984375
2020-12-01 18:38:38.5560,-0.5615575909614563,1.4297488927841189,4.226255416870116,0.257537841796875,-0.6302947998046875,-0.006134033203125
2020-12-01 18:38:38.5730,-0.6850603818893433,1.5381835699081419,4.606537342071533,0.3066864013671875,-0.67828369140625,0.0665740966796875
2020-12-01 18:38:38.5890,-0.7387888431549072,1.8223044872283936,4.931717395782472,0.3492431640625,-0.801666259765625,0.0923004150390625
2020-12-01 18:38:38.6060,-0.8496836423873901,1.881093978881836,5.143736839294434,0.4029998779296875,-0.9755401611328124,0.1385498046875
2020-12-01 18:38:38.6390,-1.0058168172836304,1.2681843042373655,5.288758754730225,0.58514404296875,-1.166229248046875,0.193603515625
2020-12-01 18:38:38.6560,-0.981799066066742,0.4193533360958099,5.322123050689697,0.8181610107421875,-1.3645477294921875,0.238372802734375
2020-12-01 18:38:38.6730,-0.7829605937004089,0.031198665499687195,5.067268371582031,0.8809661865234375,-1.461151123046875,0.428009033203125
2020-12-01 18:38:38.6890,-0.4258996546268463,0.6906857490539551,4.084932804107666,0.824981689453125,-1.483734130859375,0.681396484375
2020-12-01 18:38:38.7060,0.05008820071816445,1.6950823068618774,2.828672170639038,0.9910430908203124,-1.31158447265625,0.57135009765625
2020-12-01 18:38:38.7390,0.19186824560165405,0.8894891142845154,1.6468505859375,1.3663177490234375,-1.1488189697265625,0.365966796875
2020-12-01 18:38:38.7560,0.4113614559173584,-0.036000344902276986,0.496826559305191,1.751739501953125,-0.9986572265625,0.35357666015625
2020-12-01 18:38:38.7730,0.583018958568573,-0.4721121490001679,-0.5863734483718872,1.3963470458984375,-0.757965087890625,0.4218597412109375
2020-12-01 18:38:38.7890,0.6736785769462585,-0.20818009972572327,-1.3343608379364014,1.1544952392578125,-0.8048248291015625,0.36785888671875
2020-12-01 18:38:38.8060,1.4235498905181885,0.20549775660037994,-2.0818738937377934,1.05584716796875,-0.7908935546875,0.1688690185546875
2020-12-01 18:38:38.8390,-2.0268080234527592,0.585939884185791,-2.7092175483703613,0.5946044921875,-0.866943359375,1.8925628662109373
2020-12-01 18:38:38.8560,1.4433648586273191,-2.0070183277130127,-3.199634075164795,-0.53955078125,-3.708221435546875,-3.079345703125
2020-12-01 18:38:38.8730,-0.2454249411821365,2.8924379348754883,-2.6751625537872314,0.0721282958984375,-1.2947540283203125,1.6319732666015625
2020-12-01 18:38:38.8890,0.9431781768798828,0.5793640613555908,-1.83885657787323,0.2202301025390625,-0.472503662109375,-1.362060546875
2020-12-01 18:38:38.9060,0.508524477481842,0.5578315854072571,-1.9534512758255005,0.5052947998046875,-0.362457275390625,0.3877716064453125
2020-12-01 18:38:38.9390,0.5044085383415222,-1.1940442323684692,-1.0678341388702393,0.46844482421875,-1.4716796875,0.03509521484375
2020-12-01 18:38:38.9560,0.5741870999336243,-1.1534632444381714,-0.8320961594581604,0.3819122314453125,-1.559112548828125,0.2794342041015625
2020-12-01 18:38:38.9730,0.2822956144809723,-0.9243829250335692,-0.6117536425590515,0.1352386474609375,-0.817291259765625,0.3022308349609375
2020-12-01 18:38:38.9890,-0.043530698865652084,0.2042117267847061,-0.6121736168861389,-0.1741790771484375,-0.9540557861328124,0.5638580322265625
2020-12-01 18:38:39.0060,-0.06755959987640381,0.4816190898418426,-0.4562050700187683,0.052825927734375,-1.2338409423828125,0.335662841796875
2020-12-01 18:38:39.0390,-0.06841074675321579,-0.20997373759746552,-0.3314271867275238,0.3189239501953125,-0.990692138671875,0.1377105712890625
2020-12-01 18:38:39.0560,-0.05886678025126457,-0.6293355822563171,-0.14052915573120114,0.2454376220703125,-1.0720367431640625,0.0710906982421875
2020-12-01 18:38:39.0730,-0.061589594930410385,-0.39604800939559937,-0.3509273827075958,0.0306243896484375,-1.0803985595703125,0.1217498779296875
2020-12-01 18:38:39.0890,-0.02582440711557865,-0.18059055507183075,-0.5497560501098633,-0.062744140625,-0.976837158203125,0.11602783203125
2020-12-01 18:38:39.1060,-0.02582440711557865,-0.18059055507183075,-0.5497560501098633,-0.0076141357421875,-0.894439697265625,0.1734161376953125
2020-12-01 18:38:39.1390,-0.0331057570874691,-0.10874059796333313,-0.8546653985977173,0.1317596435546875,-0.87139892578125,0.199951171875
2020-12-01 18:38:39.1560,-0.08284641057252884,-0.22122745215892792,-0.9729129076004028,0.192474365234375,-0.8721771240234375,0.2406463623046875
2020-12-01 18:38:39.1730,0.012076636776328087,-0.4108847379684448,-1.0573697090148926,0.210906982421875,-0.8699951171875,0.1449127197265625
2020-12-01 18:38:39.1890,0.04994811862707138,-0.13474023342132568,-1.189740538597107,0.1525115966796875,-0.810211181640625,0.1884765625
2020-12-01 18:38:39.2060,0.04994811862707138,-0.13474023342132568,-1.189740538597107,-0.00347900390625,-0.90576171875,0.2451629638671875
2020-12-01 18:38:39.2390,0.03098934143781662,0.3809273838996887,-1.3504178524017334,0.22552490234375,-0.994903564453125,0.2125244140625
2020-12-01 18:38:39.2560,0.07792755216360092,-0.2426741570234299,-1.1692405939102173,0.618194580078125,-0.973114013671875,0.0409698486328125
2020-12-01 18:38:39.2730,0.02382863312959671,-0.5061933994293213,-1.1205759048461914,0.512176513671875,-0.8557891845703125,0.095855712890625
2020-12-01 18:38:39.2890,0.024231569841504097,-0.03938788548111916,-1.4185993671417236,0.1003570556640625,-0.960662841796875,0.2008056640625
2020-12-01 18:38:39.3060,0.024231569841504097,-0.03938788548111916,-1.4185993671417236,0.0510406494140625,-1.159454345703125,0.17852783203125
2020-12-01 18:38:39.3390,0.09844428300857544,0.1864875853061676,-1.8465043306350708,0.1480865478515625,-1.211456298828125,0.1734619140625
2020-12-01 18:38:39.3560,0.2066067010164261,-0.4646566212177277,-1.9593377113342283,0.291595458984375,-1.2493743896484375,0.0233612060546875
2020-12-01 18:38:39.3730,0.2448078840970993,-0.955776572227478,-2.185598611831665,0.0751800537109375,-1.3060302734375,0.057830810546875
2020-12-01 18:38:39.3890,0.17122794687747955,-1.2765651941299438,-2.330913782119751,-0.256866455078125,-1.5061798095703125,0.0785064697265625
2020-12-01 18:38:39.4060,0.17122794687747955,-1.2765651941299438,-2.330913782119751,-0.3014678955078125,-1.82916259765625,0.1475372314453125
2020-12-01 18:38:39.4390,0.10388219356536864,-2.766196012496948,-2.683828830718994,-0.3677825927734375,-2.1034393310546875,0.0641326904296875
2020-12-01 18:38:39.4560,-0.10931823402643204,-3.1579010486602783,-2.6966960430145264,-0.2466278076171875,-1.937347412109375,0.1076812744140625
2020-12-01 18:38:39.4730,-0.0978272259235382,-2.6293199062347408,-2.680073976516724,0.0128936767578125,-1.7808685302734375,0.3587188720703125
2020-12-01 18:38:39.4890,0.2005283087491989,-1.5202010869979858,-2.530198574066162,-0.0147705078125,-1.84210205078125,0.3851776123046875
2020-12-01 18:38:39.5060,0.2005283087491989,-1.5202010869979858,-2.530198574066162,-0.0147705078125,-1.84210205078125,0.3851776123046875
2020-12-01 18:38:39.5390,0.5360139012336731,-0.0373777337372303,-1.2986772060394287,0.2991485595703125,-1.1155853271484375,0.1821136474609375
2020-12-01 18:38:39.5560,0.70973801612854,-0.2579718828201294,-0.39863765239715576,0.6192626953125,-0.967498779296875,0.20355224609375
2020-12-01 18:38:39.5730,0.5943624377250671,-0.4200244545936585,0.6762743592262268,0.3016357421875,-0.691741943359375,0.1898956298828125
2020-12-01 18:38:39.5890,0.5943624377250671,-0.4200244545936585,0.6762743592262268,-0.148651123046875,-0.374908447265625,0.09967041015625
2020-12-01 18:38:39.6060,0.3979116976261139,0.4671232402324677,1.4933321475982666,-0.148651123046875,-0.374908447265625,0.09967041015625
2020-12-01 18:38:39.6390,0.24980583786964414,1.5632829666137695,2.3328936100006104,0.149505615234375,-0.4170379638671875,-0.108123779296875
2020-12-01 18:38:39.6560,0.11196807771921158,1.2389686107635498,2.9661715030670166,0.392578125,-0.533294677734375,0.00714111328125
2020-12-01 18:38:39.6730,0.042444396764039986,0.7829712033271791,3.500841856002808,0.369598388671875,-0.4804229736328125,-0.0388946533203125
2020-12-01 18:38:39.6890,0.042444396764039986,0.7829712033271791,3.500841856002808,0.27435302734375,-0.50909423828125,0.01043701171875
2020-12-01 18:38:39.7060,-0.12374697625637054,0.710709810256958,3.8007407188415527,0.27435302734375,-0.50909423828125,0.01043701171875
2020-12-01 18:38:39.7390,-0.3303097486495972,0.5784209966659546,4.414801120758057,0.348297119140625,-0.7003936767578125,0.020721435546875
2020-12-01 18:38:39.7560,-0.3014589250087738,1.3092241287231443,4.828366756439209,0.373077392578125,-0.775421142578125,0.16796875
2020-12-01 18:38:39.7730,-0.2646516263484955,2.2912750244140625,5.1177940368652335,0.32049560546875,-0.89178466796875,0.2264251708984375
2020-12-01 18:38:39.7890,-0.2646516263484955,2.2912750244140625,5.1177940368652335,0.3979949951171875,-1.1567840576171875,0.267578125
2020-12-01 18:38:39.8060,-0.3625963032245636,2.6382381916046143,5.1624274253845215,0.3979949951171875,-1.1567840576171875,0.267578125
2020-12-01 18:38:39.8390,-0.4881294667720794,0.6317369341850281,4.764966011047363,1.002044677734375,-1.6228790283203125,0.4085845947265625
2020-12-01 18:38:39.8560,-0.06402425467967987,-0.04383882880210877,4.265268325805663,1.3081207275390625,-1.358795166015625,0.536956787109375
2020-12-01 18:38:39.8730,0.29109787940979004,0.1257888227701187,3.0666561126708984,1.0921478271484375,-0.9871063232421876,0.4353485107421875
2020-12-01 18:38:39.8890,0.29109787940979004,0.1257888227701187,3.0666561126708984,1.1185302734375,-1.173614501953125,0.2025146484375
2020-12-01 18:38:39.9060,0.4751737117767334,0.34077727794647217,1.7712607383728027,1.1185302734375,-1.173614501953125,0.2025146484375
2020-12-01 18:38:39.9390,0.2816431224346161,0.09820033609867096,-0.3893946409225464,1.2977294921875,-0.8553009033203125,0.0587005615234375
2020-12-01 18:38:39.9560,0.3445296883583069,1.225511908531189,-1.4158791303634644,1.02996826171875,-0.8025665283203125,0.1270904541015625
2020-12-01 18:38:39.9730,2.655511379241944,1.8256068229675293,-2.7086050510406494,0.9228668212890624,-0.830047607421875,0.8058929443359375
2020-12-01 18:38:39.9900,2.655511379241944,1.8256068229675293,-2.7086050510406494,0.9228668212890624,-0.830047607421875,0.8058929443359375
2020-12-01 18:38:40.0070,-1.1760793924331665,-0.9493585824966432,-2.8272686004638667,0.8932952880859375,-1.7947998046875,1.65533447265625
2020-12-01 18:38:40.0400,0.7664667963981628,2.020569086074829,-2.081421136856079,0.2251434326171875,-0.9731597900390624,0.690338134765625
2020-12-01 18:38:40.0550,0.7618379592895508,-0.5586012005805969,-2.1255049705505367,-0.0820465087890625,-0.156585693359375,-1.182891845703125
2020-12-01 18:38:40.0730,0.5611365437507629,0.3177252411842346,-1.81978452205658,0.2230377197265625,-0.671356201171875,0.2609405517578125
2020-12-01 18:38:40.0890,0.5611365437507629,0.3177252411842346,-1.81978452205658,0.2230377197265625,-0.671356201171875,0.2609405517578125
2020-12-01 18:38:40.1060,0.6501221060752869,-0.5277863144874573,-0.9908460974693298,0.4627838134765625,-1.662353515625,0.53997802734375
2020-12-01 18:38:40.1390,0.04166701808571816,-1.8153551816940308,-0.4023005664348602,0.07745361328125,-0.7324981689453125,0.531951904296875
2020-12-01 18:38:40.1560,-0.21167603135108948,-0.10082221776247023,-0.4587044715881348,-0.2913818359375,-1.041473388671875,0.567230224609375
2020-12-01 18:38:40.1730,-0.21167603135108948,-0.10082221776247023,-0.4587044715881348,-0.08258056640625,-1.258056640625,0.3614349365234375
2020-12-01 18:38:40.1890,-0.2228943258523941,0.548728883266449,-0.3577094078063965,-0.08258056640625,-1.258056640625,0.3614349365234375
2020-12-01 18:38:40.2060,-0.2649608254432678,-0.07288805395364761,-0.25069400668144226,0.240966796875,-1.0887298583984375,0.1052093505859375
2020-12-01 18:38:40.2390,-0.19194254279136655,-0.2363475561141968,-0.32769957184791565,-0.02008056640625,-1.043487548828125,0.081146240234375
2020-12-01 18:38:40.2560,-0.2300795465707779,0.21385397017002106,-0.5699495077133179,-0.1180419921875,-0.9158172607421876,0.1927490234375
2020-12-01 18:38:40.2730,-0.2300795465707779,0.21385397017002106,-0.5699495077133179,-0.054290771484375,-0.848602294921875,0.2863922119140625
2020-12-01 18:38:40.2890,-0.2305133640766144,0.12944187223911285,-0.7094504237174988,-0.054290771484375,-0.848602294921875,0.2863922119140625
2020-12-01 18:38:40.3060,-0.2263937294483185,0.02028263546526432,-0.824207067489624,0.079315185546875,-0.8175811767578125,0.3068084716796875
2020-12-01 18:38:40.3390,-0.17226950824260712,-0.22048097848892206,-1.1072219610214231,0.1387176513671875,-0.847991943359375,0.1904296875
2020-12-01 18:38:40.3560,-0.06716012954711914,-0.3052035868167877,-1.2165833711624146,0.2703704833984375,-0.848480224609375,0.0707550048828125
2020-12-01 18:38:40.3730,-0.06716012954711914,-0.3052035868167877,-1.2165833711624146,0.0485992431640625,-0.84503173828125,0.1453857421875
2020-12-01 18:38:40.3890,-0.010002832859754562,0.052562542259693146,-1.354412078857422,0.0485992431640625,-0.84503173828125,0.1453857421875
2020-12-01 18:38:40.4060,-0.062410913407802575,0.456976592540741,-1.579315185546875,-0.0483245849609375,-0.95648193359375,0.2646942138671875
2020-12-01 18:38:40.4390,0.03550552949309349,-0.495863288640976,-1.6138423681259155,0.42645263671875,-1.0218963623046875,0.0565948486328125
2020-12-01 18:38:40.4560,0.030483873561024662,-0.4862000048160553,-1.809516191482544,0.2092742919921875,-0.960235595703125,0.100372314453125
2020-12-01 18:38:40.4730,0.030483873561024662,-0.4862000048160553,-1.809516191482544,0.2092742919921875,-0.960235595703125,0.100372314453125
2020-12-01 18:38:40.4890,0.04556695371866226,0.07426970452070236,-1.999239802360535,-0.0597991943359375,-1.0912933349609375,0.1561737060546875
2020-12-01 18:38:40.5060,0.08836901187896729,0.4551488757133484,-2.238458633422852,-0.025634765625,-1.3405303955078125,0.2980194091796875
2020-12-01 18:38:40.5390,0.2843952476978302,-1.970655083656311,-2.0836410522460938,0.2801361083984375,-1.2597808837890625,-0.1381378173828125
2020-12-01 18:38:40.5560,-0.07356476783752441,-1.4853152036666868,-2.529526472091675,-0.32208251953125,-1.5882110595703125,0.106964111328125
2020-12-01 18:38:40.5730,-0.07356476783752441,-1.4853152036666868,-2.529526472091675,-0.32208251953125,-1.5882110595703125,0.106964111328125
2020-12-01 18:38:40.5900,-0.04979418963193893,-2.061163187026977,-2.5951530933380127,-0.53204345703125,-1.9537811279296875,-0.1304779052734375
2020-12-01 18:38:40.6060,-0.27456924319267273,-1.2439031600952148,-2.946068286895752,-0.5315399169921875,-1.9145050048828125,0.2034454345703125
2020-12-01 18:38:40.6390,0.0721421018242836,-1.0209473371505735,-2.3987715244293213,0.1622772216796875,-2.0691680908203125,0.6047515869140625
2020-12-01 18:38:40.6560,0.0721421018242836,-1.0209473371505735,-2.3987715244293213,-0.1343536376953125,-1.6788330078125,0.2516937255859375
2020-12-01 18:38:40.6730,0.1713310033082962,-0.836006760597229,-2.0590808391571045,-0.1343536376953125,-1.6788330078125,0.2516937255859375
2020-12-01 18:38:40.6890,0.4610089063644409,-0.2779666483402252,-1.6658279895782468,0.0677032470703125,-1.231292724609375,0.2822418212890625
2020-12-01 18:38:40.7060,0.5980684757232666,-0.1969303786754608,-0.7761234045028687,0.6920623779296875,-1.061859130859375,0.41461181640625
2020-12-01 18:38:40.7390,0.3823724091053009,-2.271745204925537,1.4057109355926514,0.1316986083984375,-0.5454864501953125,0.0626220703125
2020-12-01 18:38:40.7560,0.3823724091053009,-2.271745204925537,1.4057109355926514,-0.231414794921875,-0.265716552734375,0.0442657470703125
2020-12-01 18:38:40.7730,0.34575554728508,-0.7748544216156006,1.9154229164123533,-0.231414794921875,-0.265716552734375,0.0442657470703125
2020-12-01 18:38:40.7890,0.2611109614372253,1.1650440692901611,2.3977534770965576,-0.2097625732421875,-0.2369232177734375,0.114288330078125
2020-12-01 18:38:40.8060,0.2602526247501373,1.7679136991500854,2.8594274520874023,0.059326171875,-0.3904266357421875,0.045318603515625
2020-12-01 18:38:40.8390,0.20695318281650546,1.730002760887146,4.103410720825194,0.3021392822265625,-0.514556884765625,0.053192138671875
2020-12-01 18:38:40.8560,0.20695318281650546,1.730002760887146,4.103410720825194,0.1959381103515625,-0.5757293701171875,0.0858154296875
2020-12-01 18:38:40.8730,-0.013254020363092422,1.921049118041992,4.508915901184082,0.1959381103515625,-0.5757293701171875,0.0858154296875
2020-12-01 18:38:40.8890,-0.22804728150367734,1.8013405799865725,4.680732250213623,0.2273101806640625,-0.71966552734375,0.0511474609375
2020-12-01 18:38:40.9060,-0.3239274621009827,1.6208642721176147,5.032107353210449,0.4044342041015625,-0.9096832275390624,0.083099365234375
2020-12-01 18:38:40.9390,-0.2666023969650269,0.6846411824226379,5.907132148742676,0.6955718994140625,-1.2414398193359375,0.127838134765625
2020-12-01 18:38:40.9560,-0.2666023969650269,0.6846411824226379,5.907132148742676,0.6989593505859375,-1.4185943603515625,0.3997650146484375
2020-12-01 18:38:40.9730,-0.09359892457723618,0.4039677083492279,5.599377155303955,0.6989593505859375,-1.4185943603515625,0.3997650146484375
2020-12-01 18:38:40.9890,-0.01624821126461029,1.302091360092163,4.764368534088135,0.585662841796875,-1.5042572021484375,0.58758544921875
2020-12-01 18:38:41.0060,0.3874987363815308,1.4892306327819824,3.577133893966675,1.093963623046875,-1.5841827392578125,0.6010589599609375
2020-12-01 18:38:41.0390,0.5300481319427489,-0.4534780085086823,1.13346266746521,1.3701019287109375,-0.911407470703125,0.1254730224609375
2020-12-01 18:38:41.0560,0.5300481319427489,-0.4534780085086823,1.13346266746521,1.3701019287109375,-0.911407470703125,0.1254730224609375
2020-12-01 18:38:41.0730,0.4379368722438812,0.4967756867408752,-0.025705896317958832,1.2531890869140625,-1.0870361328125,0.3520050048828125
2020-12-01 18:38:41.0890,0.2984055876731873,0.6147947311401367,-1.1725599765777588,1.1941375732421875,-0.83306884765625,0.0899658203125
2020-12-01 18:38:41.1060,0.4819908738136292,1.2360793352127075,-1.92314875125885,1.160186767578125,-0.7154541015625,0.0574951171875
2020-12-01 18:38:41.1390,1.3863633871078491,0.7750312685966492,-2.6651136875152592,0.643035888671875,-2.1291961669921875,-0.1533203125
2020-12-01 18:38:41.1570,-0.4624054431915283,-2.842082977294922,-2.2222702503204346,0.643035888671875,-2.1291961669921875,-0.1533203125
2020-12-01 18:38:41.1730,0.1966683268547058,-2.187060832977295,-3.1264724731445312,-0.3910369873046875,-3.345855712890625,-0.055694580078125
2020-12-01 18:38:41.1890,1.261227250099182,2.4796199798583984,-1.8719161748886108,0.2787017822265625,-1.0963287353515625,-0.2510528564453125
2020-12-01 18:38:41.2060,0.5168444514274597,0.26408571004867554,-2.558436155319214,-0.464691162109375,-0.0342864990234375,-0.2980804443359375
2020-12-01 18:38:41.2390,0.16084294021129608,0.4148733615875244,-1.7639561891555786,0.675018310546875,-1.5931396484375,0.4117431640625
2020-12-01 18:38:41.2560,0.33374229073524475,-0.27628058195114136,-1.0093058347702026,0.675018310546875,-1.5931396484375,0.4117431640625
2020-12-01 18:38:41.2730,0.2757013440132141,-1.4178813695907593,-0.3624269366264343,0.7049407958984375,-1.2035369873046875,0.2712554931640625
2020-12-01 18:38:41.2890,-0.09366470575332643,-1.2726445198059082,-0.3558177649974823,0.1279296875,-0.664825439453125,0.4149932861328125
2020-12-01 18:38:41.3060,-0.1792171597480774,-0.04296983778476715,-0.4870245158672333,-0.3160858154296875,-1.1457366943359375,0.361328125
2020-12-01 18:38:41.3390,-0.17779876291751862,0.6058491468429565,-0.5622907876968384,0.1901702880859375,-1.02978515625,0.0880584716796875
2020-12-01 18:38:41.3560,-0.18232692778110504,-0.14660249650478366,-0.4383235573768616,0.1901702880859375,-1.02978515625,0.0880584716796875
2020-12-01 18:38:41.3730,-0.12506283819675446,-0.6138900518417358,-0.3030136823654175,0.20361328125,-1.097808837890625,0.041961669921875
2020-12-01 18:38:41.3890,-0.08886196464300156,-0.3772301077842712,-0.6044043898582458,-0.0807647705078125,-0.996337890625,0.1846466064453125
2020-12-01 18:38:41.4060,-0.08137208968400955,0.03229881823062897,-0.7555960416793823,-0.022552490234375,-0.9081878662109376,0.2801666259765625
2020-12-01 18:38:41.4390,-0.07509715110063553,-0.2952963709831238,-0.8613885045051575,0.1167449951171875,-0.8942108154296875,0.1726837158203125
2020-12-01 18:38:41.4560,-0.10490217804908752,-0.4539704322814941,-0.9964573979377748,0.1603546142578125,-0.8667144775390625,0.1556854248046875
2020-12-01 18:38:41.4730,-0.11112625151872636,0.04050428420305252,-1.2209341526031494,0.0339202880859375,-0.876373291015625,0.2451934814453125
2020-12-01 18:38:41.4890,-0.08242537081241608,0.19854265451431274,-1.2475775480270386,0.1424560546875,-0.829498291015625,0.2552032470703125
2020-12-01 18:38:41.5060,-0.07311016321182251,0.09736596792936324,-1.3295618295669556,0.262786865234375,-0.822601318359375,0.2420806884765625
2020-12-01 18:38:41.5390,-0.0598532147705555,-0.07647320628166199,-1.232480525970459,0.3860931396484375,-0.9112396240234376,0.1690521240234375
2020-12-01 18:38:41.5560,-0.05747874081134796,-0.016846358776092533,-1.2679458856582642,0.380889892578125,-0.8292388916015625,0.167327880859375
2020-12-01 18:38:41.5730,-0.015537148341536522,-0.08016567677259445,-1.359492301940918,0.32110595703125,-0.850738525390625,0.134490966796875
2020-12-01 18:38:41.5890,-0.07648944854736328,0.2944020628929138,-1.5368692874908447,0.1719207763671875,-0.869537353515625,0.2624664306640625
2020-12-01 18:38:41.6060,0.02906840294599533,0.4849451184272766,-1.7138147354125977,-0.0070953369140625,-1.085784912109375,0.2318267822265625
2020-12-01 18:38:41.6390,0.10090690851211548,0.3114076852798462,-1.905956745147705,0.207489013671875,-1.1920166015625,0.25360107421875
2020-12-01 18:38:41.6570,0.14411163330078125,-0.2774502635002136,-1.94915235042572,0.4063873291015625,-1.21685791015625,0.1035308837890625
2020-12-01 18:38:41.6730,0.2297876626253128,-0.7572399973869324,-2.157797813415528,0.1575927734375,-1.366119384765625,-0.048583984375
2020-12-01 18:38:41.6890,0.2133231908082962,-0.9411757588386536,-2.3883514404296875,-0.1772613525390625,-1.4290771484375,-0.1046295166015625
2020-12-01 18:38:41.7060,0.1111036166548729,-0.9535378813743592,-2.6246469020843506,-0.2459259033203125,-1.563446044921875,-0.0505523681640625
2020-12-01 18:38:41.7390,0.05727767199277878,-2.0174274444580083,-2.3774073123931885,-0.18536376953125,-1.8471832275390625,-0.226531982421875
2020-12-01 18:38:41.7570,-0.03893408179283142,-2.109494924545288,-2.595301866531372,-0.2566375732421875,-1.9916229248046875,0.107391357421875
2020-12-01 18:38:41.7730,-0.1926509439945221,-2.6008217334747314,-2.524444580078125,0.1313934326171875,-1.905303955078125,0.160675048828125
2020-12-01 18:38:41.7900,0.11247354745864868,-1.4217256307601929,-1.809882640838623,0.1671905517578125,-1.901092529296875,0.4214630126953125
2020-12-01 18:38:41.8060,0.13954856991767886,-0.7942731380462646,-1.6856014728546145,-0.08123779296875,-1.499114990234375,0.3584747314453125
2020-12-01 18:38:41.8390,0.4824942052364349,-0.6852545142173767,-1.3232682943344116,0.048187255859375,-1.2234039306640625,0.2830810546875
2020-12-01 18:38:41.8570,0.6737704277038574,0.5795954465866089,-0.6454402804374695,0.5924224853515625,-1.0000152587890625,0.629241943359375
2020-12-01 18:38:41.8730,0.5238727927207947,-1.2648485898971558,0.4722375869750977,0.7308197021484375,-0.9276123046875,0.190948486328125
2020-12-01 18:38:41.8900,0.3010519742965698,-2.1649236679077153,1.547484040260315,0.24871826171875,-0.694976806640625,0.0804290771484375
2020-12-01 18:38:41.9070,0.19773279130458832,-1.3267642259597778,2.308235645294189,-0.1915435791015625,-0.368011474609375,0.0358734130859375
2020-12-01 18:38:41.9390,0.11402590572834015,0.4531432390213013,2.693058967590332,-0.2704010009765625,-0.2609100341796875,0.0790252685546875
2020-12-01 18:38:41.9560,0.17513160407543182,1.0813832283020022,3.0273315906524663,0.0226898193359375,-0.43560791015625,-0.0484466552734375
2020-12-01 18:38:41.9730,0.1635790765285492,1.291194200515747,3.429999828338623,0.242340087890625,-0.5726165771484375,0.0338134765625
2020-12-01 18:38:41.9900,0.11791438609361647,1.556444764137268,3.903207063674927,0.2042236328125,-0.542633056640625,0.0787811279296875
2020-12-01 18:38:42.0060,-0.032223448157310486,1.8475186824798584,4.223475933074951,0.17626953125,-0.559722900390625,0.093719482421875
2020-12-01 18:38:42.0390,-0.17733722925186154,1.7966113090515137,4.491324424743652,0.251190185546875,-0.759979248046875,0.0518035888671875
2020-12-01 18:38:42.0560,-0.2796888947486877,2.108603477478028,4.8721957206726065,0.3938446044921875,-0.9272613525390624,0.115081787109375
2020-12-01 18:38:42.0730,-0.34743839502334595,1.995046615600586,5.324634075164795,0.5065765380859375,-1.0091552734375,0.1512603759765625
2020-12-01 18:38:42.0890,-0.4033741056919098,1.366657018661499,5.488326549530028,0.5892486572265625,-1.219696044921875,0.239288330078125
2020-12-01 18:38:42.1060,-0.18606866896152496,0.7371600270271301,5.339112758636475,0.570465087890625,-1.3623809814453125,0.2686004638671875
2020-12-01 18:38:42.1390,-0.05321155488491058,1.343429446220398,4.7614402770996085,0.7064361572265625,-1.5959320068359375,0.7086334228515625
2020-12-01 18:38:42.1560,0.19851841032505035,1.5699385404586792,3.848691463470459,1.08477783203125,-1.4349365234375,0.5143585205078125
2020-12-01 18:38:42.1730,0.4088013470172882,0.6837580800056458,2.673466444015503,1.3706207275390625,-1.2154541015625,0.292266845703125
2020-12-01 18:38:42.1900,0.4237528741359711,0.12509240210056305,1.3737990856170654,1.53076171875,-1.11138916015625,0.2410430908203125
2020-12-01 18:38:42.2060,0.3568321466445923,0.39166203141212463,0.033345438539981835,1.36395263671875,-0.9337615966796876,0.249725341796875
2020-12-01 18:38:42.2260,0.3568321466445923,0.39166203141212463,0.033345438539981835,1.3163604736328125,-0.846221923828125,0.145050048828125
2020-12-01 18:38:42.2560,0.4771183431148529,0.07438288629055023,-1.8713846206665041,1.403594970703125,-0.7480010986328125,-0.0621795654296875
2020-12-01 18:38:42.2730,2.679455041885376,-0.906849205493927,-1.948961973190308,1.1001129150390625,-0.697174072265625,0.0855255126953125
2020-12-01 18:38:42.2890,-1.850796222686768,-0.6224891543388367,-2.059456348419189,-0.2419281005859375,-1.43402099609375,2.16778564453125
2020-12-01 18:38:42.3070,-1.850796222686768,-0.6224891543388367,-2.059456348419189,-0.9860076904296876,-4.2483978271484375,-1.289825439453125
2020-12-01 18:38:42.3250,0.7650606632232666,0.41568589210510254,-3.4695281982421875,0.516815185546875,-1.011138916015625,0.4275970458984375
2020-12-01 18:38:42.3560,1.1149773597717283,-0.4955431818962097,-1.6090941429138184,0.5459136962890625,-0.0007781982421875,-1.257781982421875
2020-12-01 18:38:42.3730,0.39290812611579895,-0.9448594450950624,-1.8546565771102903,-0.062713623046875,-0.385894775390625,0.479278564453125
2020-12-01 18:38:42.3880,0.2693244218826294,-0.06407725065946579,-1.0171829462051392,0.0688018798828125,-1.66009521484375,0.79876708984375
2020-12-01 18:38:42.4060,0.2693244218826294,-0.06407725065946579,-1.0171829462051392,0.529754638671875,-1.4915618896484375,0.3196258544921875
2020-12-01 18:38:42.4390,0.0503246895968914,-1.2702964544296265,-0.35464516282081604,0.3222808837890625,-0.6494293212890625,0.2230377197265625
2020-12-01 18:38:42.4560,-0.1250239610671997,-0.7387028336524963,-0.3415248394012451,-0.1815185546875,-0.978515625,0.2917938232421875
2020-12-01 18:38:42.4730,-0.09507804363965988,0.1984880566596985,-0.36885738372802734,-0.1529388427734375,-1.2960968017578125,0.3012847900390625
2020-12-01 18:38:42.4890,-0.07799679785966873,-0.047269776463508606,-0.3920551240444183,0.107452392578125,-0.9948272705078124,0.1550140380859375
2020-12-01 18:38:42.5060,-0.07799679785966873,-0.047269776463508606,-0.3920551240444183,0.0926513671875,-0.937225341796875,0.129302978515625
2020-12-01 18:38:42.5390,-0.11281070113182068,-0.2601202726364136,-0.4638992249965668,0.0146484375,-0.979278564453125,0.2107696533203125
2020-12-01 18:38:42.5560,-0.11611675471067427,-0.10607530176639557,-0.6923419833183289,-0.0575408935546875,-0.9152679443359376,0.249847412109375
2020-12-01 18:38:42.5730,-0.10296792536973952,-0.0666770339012146,-0.8641363978385925,-0.0320892333984375,-0.9127960205078124,0.2458038330078125
2020-12-01 18:38:42.5900,-0.10481083393096924,-0.18635442852973935,-1.01293683052063,0.147003173828125,-0.887847900390625,0.16064453125
2020-12-01 18:38:42.6060,-0.10481083393096924,-0.18635442852973935,-1.01293683052063,0.18170166015625,-0.8646697998046875,0.0810699462890625
2020-12-01 18:38:42.6390,0.002090581459924579,-0.08921030163764954,-1.1090246438980105,0.03369140625,-0.8853302001953125,0.2239227294921875
2020-12-01 18:38:42.6560,-0.06568074226379395,0.422190934419632,-1.1904561519622805,0.10626220703125,-0.9523773193359376,0.3468780517578125
2020-12-01 18:38:42.6730,-0.05222858488559723,-0.05275322496891022,-1.0206670761108398,0.4851837158203125,-0.96728515625,0.118011474609375
2020-12-01 18:38:42.6900,-0.03863847255706787,-0.4971285462379456,-0.8229029178619385,0.570648193359375,-0.9185943603515624,0.03131103515625
2020-12-01 18:38:42.7060,-0.03863847255706787,-0.4971285462379456,-0.8229029178619385,0.570648193359375,-0.9185943603515624,0.03131103515625
2020-12-01 18:38:42.7390,-0.08802413195371628,-0.0891336053609848,-1.1575613021850586,0.04217529296875,-1.0293121337890625,0.2006988525390625
2020-12-01 18:38:42.7560,-0.1190456971526146,0.400374561548233,-1.3387582302093506,-0.0006103515625,-1.04632568359375,0.2635650634765625
2020-12-01 18:38:42.7730,-0.22684726119041446,0.6341825127601624,-1.6696531772613523,0.09014892578125,-1.046112060546875,0.3206939697265625
2020-12-01 18:38:42.7900,-0.1146693229675293,0.05761296302080154,-1.774384617805481,0.200347900390625,-1.100128173828125,0.163421630859375
2020-12-01 18:38:42.8060,-0.1146693229675293,0.05761296302080154,-1.774384617805481,0.200347900390625,-1.100128173828125,0.163421630859375
2020-12-01 18:38:42.8390,0.22396625578403476,-0.3352762758731842,-2.246741771697998,0.013580322265625,-1.2689361572265625,0.05926513671875
2020-12-01 18:38:42.8560,0.25703072547912603,-0.6965489983558655,-2.416122436523437,-0.1642303466796875,-1.4119110107421875,0.0070953369140625
2020-12-01 18:38:42.8730,0.1403355449438095,-0.7367677688598633,-2.759053468704224,-0.0747222900390625,-1.605010986328125,0.062774658203125
2020-12-01 18:38:42.8900,0.1403355449438095,-0.7367677688598633,-2.759053468704224,-0.1476593017578125,-1.735992431640625,-0.34979248046875
2020-12-01 18:38:42.9060,0.1872931867837906,-1.9989775419235232,-2.5273656845092773,-0.1476593017578125,-1.735992431640625,-0.34979248046875
2020-12-01 18:38:42.9390,-0.40489661693573,-3.13667893409729,-2.556018829345703,-0.2550201416015625,-1.8272552490234373,-0.0682525634765625
2020-12-01 18:38:42.9560,-0.3224044144153595,-2.03650164604187,-2.451079607009888,0.0883026123046875,-1.919586181640625,0.3524932861328125
2020-12-01 18:38:42.9730,-0.016642626374959946,-0.16508349776268005,-2.38006854057312,0.0472564697265625,-1.86700439453125,0.3682098388671875
2020-12-01 18:38:42.9900,-0.016642626374959946,-0.16508349776268005,-2.38006854057312,0.2167205810546875,-1.470550537109375,0.3624725341796875
2020-12-01 18:38:43.0060,0.0751405581831932,-0.2749316990375519,-2.1299538612365723,0.2167205810546875,-1.470550537109375,0.3624725341796875
2020-12-01 18:38:43.0390,0.5237473845481873,-0.4835935533046722,-0.4024806022644043,0.6459808349609375,-0.9528656005859376,0.5335845947265625
2020-12-01 18:38:43.0570,0.28493401408195496,-1.4269951581954956,0.5032740831375122,0.27874755859375,-0.6928253173828125,0.1255035400390625
2020-12-01 18:38:43.0730,0.1367567777633667,-1.150784969329834,1.329590082168579,-0.120147705078125,-0.4379730224609375,0.045318603515625
2020-12-01 18:38:43.0900,0.1367567777633667,-1.150784969329834,1.329590082168579,-0.2926788330078125,-0.2453765869140625,0.1011810302734375
2020-12-01 18:38:43.1060,0.04651530459523201,0.3529082536697388,1.8494806289672847,-0.2926788330078125,-0.2453765869140625,0.1011810302734375
2020-12-01 18:38:43.1390,-0.132230743765831,1.4901741743087769,2.9965193271636963,0.271240234375,-0.4609527587890625,0.072174072265625
2020-12-01 18:38:43.1560,-0.20282581448554995,1.3375681638717651,3.49028754234314,0.3611907958984375,-0.5001068115234375,0.04071044921875
2020-12-01 18:38:43.1730,-0.33579930663108826,1.24583101272583,3.95806622505188,0.2935791015625,-0.5077362060546875,0.1223602294921875
2020-12-01 18:38:43.1900,-0.33579930663108826,1.24583101272583,3.95806622505188,0.2150421142578125,-0.557861328125,0.16986083984375
2020-12-01 18:38:43.2060,-0.439598947763443,1.0292047262191772,4.363672733306885,0.2150421142578125,-0.557861328125,0.16986083984375
2020-12-01 18:38:43.2390,-0.3671084940433502,1.6916137933731081,4.952022075653076,0.2692413330078125,-0.8108673095703125,0.2121429443359375
2020-12-01 18:38:43.2560,-0.3869815468788147,2.056753635406494,5.315902233123778,0.3773193359375,-1.0028228759765625,0.2675628662109375
2020-12-01 18:38:43.2730,-0.4523141980171204,1.6529690027236938,5.63206958770752,0.5132293701171875,-1.2474517822265625,0.2960205078125
2020-12-01 18:38:43.2900,-0.4523141980171204,1.6529690027236938,5.63206958770752,0.5132293701171875,-1.2474517822265625,0.2960205078125
2020-12-01 18:38:43.3060,-0.2890579104423523,0.7477533221244812,5.7087059020996085,0.68487548828125,-1.5194854736328125,0.3015594482421875
2020-12-01 18:38:43.3390,0.3878763616085053,1.8640700578689573,4.257889270782472,0.9861297607421876,-1.4949493408203125,0.7250213623046875
2020-12-01 18:38:43.3560,0.5579013228416443,0.5945816040039062,3.077400684356689,1.366485595703125,-1.375885009765625,0.490142822265625
2020-12-01 18:38:43.3730,0.5579013228416443,0.5945816040039062,3.077400684356689,1.612945556640625,-1.127227783203125,0.2630157470703125
2020-12-01 18:38:43.3890,0.6740441918373108,-0.03705042973160744,1.5944273471832275,1.612945556640625,-1.127227783203125,0.2630157470703125
2020-12-01 18:38:43.4060,0.5856826305389404,-0.2736448645591736,0.11852478235960008,1.589080810546875,-0.9471588134765624,0.338348388671875
2020-12-01 18:38:43.4390,0.4815434515476227,0.13509896397590634,-2.1057322025299072,1.25750732421875,-0.8733062744140625,0.16632080078125
2020-12-01 18:38:43.4560,1.99607253074646,0.8700054287910461,-2.882380485534668,0.9679412841796876,-0.9204864501953124,0.15179443359375
2020-12-01 18:38:43.4730,1.99607253074646,0.8700054287910461,-2.882380485534668,-0.430267333984375,-1.6719970703125,0.6297149658203125
2020-12-01 18:38:43.4900,-1.2381088733673096,-2.1444957256317143,-2.369784355163574,-0.430267333984375,-1.6719970703125,0.6297149658203125
2020-12-01 18:38:43.5070,0.5937448143959045,3.0928609371185303,-4.047896385192871,-0.4919586181640625,-3.234237670898437,-0.59515380859375
2020-12-01 18:38:43.5390,0.724762499332428,0.5634508728981018,-1.9932445287704468,0.510955810546875,0.03411865234375,-0.6245574951171875
2020-12-01 18:38:43.5570,0.4732527732849121,-0.4298046231269837,-1.63099467754364,0.42523193359375,-0.6718902587890625,0.240692138671875
2020-12-01 18:38:43.5730,0.4732527732849121,-0.4298046231269837,-1.63099467754364,0.3143768310546875,-1.79779052734375,0.4253692626953125
2020-12-01 18:38:43.5890,0.4100983142852783,-0.7350196838378906,-0.8295965194702148,0.3143768310546875,-1.79779052734375,0.4253692626953125
2020-12-01 18:38:43.6060,0.33940309286117554,-0.7904824018478394,-0.589817225933075,0.2911376953125,-1.3222503662109375,0.333160400390625
2020-12-01 18:38:43.6390,-0.032293759286403656,-0.2012777179479599,-0.4733571708202362,-0.1102752685546875,-1.17529296875,0.290069580078125
2020-12-01 18:38:43.6560,0.019623236730694767,-0.2353163808584213,-0.3878254890441895,0.1348419189453125,-1.173583984375,0.1799468994140625
2020-12-01 18:38:43.6730,0.019623236730694767,-0.2353163808584213,-0.3878254890441895,0.111053466796875,-1.005889892578125,0.2778167724609375
2020-12-01 18:38:43.6900,-0.08077181130647659,-0.39442214369773865,-0.2866179049015045,0.111053466796875,-1.005889892578125,0.2778167724609375
2020-12-01 18:38:43.7060,-0.10055962949991226,-0.4503996670246124,-0.3620554208755493,-0.09051513671875,-1.1103973388671875,0.1702117919921875
2020-12-01 18:38:43.7390,-0.02912273071706295,0.051364652812480927,-0.8400757908821106,-0.097412109375,-0.9386444091796876,0.1360015869140625
2020-12-01 18:38:43.7550,-0.02912273071706295,0.051364652812480927,-0.8400757908821106,0.0735015869140625,-0.9033966064453124,0.224609375
2020-12-01 18:38:43.7710,0.007551127113401891,-0.16688352823257446,-0.9430328011512756,0.0735015869140625,-0.9033966064453124,0.224609375
2020-12-01 18:38:43.7870,0.005559881217777729,-0.2673821747303009,-1.0415189266204834,0.0867462158203125,-0.8665313720703125,0.2440185546875
2020-12-01 18:38:43.8050,-0.0031220237724483013,-0.12059645354747772,-1.2166709899902344,0.053955078125,-0.8441925048828125,0.2629241943359375
2020-12-01 18:38:43.8400,0.0886441171169281,-0.2151906043291092,-1.370240330696106,0.26385498046875,-0.8656158447265625,0.1596832275390625
2020-12-01 18:38:43.8570,0.14639049768447876,-0.29969802498817444,-1.2603836059570312,0.2844085693359375,-0.945587158203125,0.140411376953125
2020-12-01 18:38:43.8730,0.14639049768447876,-0.29969802498817444,-1.2603836059570312,0.2844085693359375,-0.945587158203125,0.140411376953125
2020-12-01 18:38:43.8900,0.13516847789287567,-0.15918539464473724,-1.3551697731018066,0.25048828125,-0.932220458984375,0.14202880859375
2020-12-01 18:38:43.9070,0.0997750610113144,-0.0005544701125472784,-1.3857744932174685,0.3100128173828125,-0.8213958740234375,0.1399688720703125
2020-12-01 18:38:43.9260,0.06402958184480667,-0.09998092800378801,-1.4556944370269775,0.330047607421875,-0.9906005859375,0.1701202392578125
2020-12-01 18:38:43.9560,0.22130069136619568,-0.24616849422454834,-1.7938592433929443,0.116058349609375,-1.17108154296875,0.0767059326171875
2020-12-01 18:38:43.9730,0.22130069136619568,-0.24616849422454834,-1.7938592433929443,0.116058349609375,-1.17108154296875,0.0767059326171875
2020-12-01 18:38:43.9900,0.2853901982307434,-0.2155197709798813,-2.0805675983428955,-0.028076171875,-1.2706451416015625,0.13623046875
2020-12-01 18:38:44.0070,0.3371378183364868,-0.9286349415779114,-2.233471155166626,-0.0220794677734375,-1.4089813232421875,0.112518310546875
2020-12-01 18:38:44.0260,0.1658262461423874,-1.1826951503753662,-2.495922803878784,-0.170989990234375,-1.6042938232421875,0.2080230712890625
2020-12-01 18:38:44.0570,0.2740022540092468,-2.5665030479431152,-2.547762870788574,-0.405670166015625,-2.0117340087890625,0.1395416259765625
2020-12-01 18:38:44.0740,0.2629663944244385,-2.9380154609680176,-2.6477229595184326,-0.405670166015625,-2.0117340087890625,0.1395416259765625
2020-12-01 18:38:44.0900,-0.024235831573605537,-2.908259868621826,-2.7512905597686768,-0.2218017578125,-1.805023193359375,0.1024627685546875
2020-12-01 18:38:44.1070,0.05755410715937615,-2.9846999645233154,-2.6057796478271484,0.144073486328125,-1.81182861328125,0.2741851806640625
2020-12-01 18:38:44.1260,0.3244057893753052,-1.6485611200332642,-2.108063220977783,0.0049591064453125,-1.7564697265625,0.4362945556640625
2020-12-01 18:38:44.1570,0.41862228512763977,-1.3717719316482544,-1.732330560684204,0.282562255859375,-1.0931243896484375,0.272705078125
2020-12-01 18:38:44.1730,0.8099397420883179,-0.2559891641139984,-1.3647485971450806,0.282562255859375,-1.0931243896484375,0.272705078125
2020-12-01 18:38:44.1900,0.9173732399940492,-0.9360180497169496,-0.10642710328102112,0.7296905517578125,-0.966064453125,0.310791015625
2020-12-01 18:38:44.2070,0.8234493732452393,-1.6341651678085327,1.0196630954742432,0.3805084228515625,-0.663726806640625,0.0781097412109375
2020-12-01 18:38:44.2260,0.6609185338020325,-1.1468716859817505,1.6882108449935913,-0.13934326171875,-0.371124267578125,-0.0418853759765625
2020-12-01 18:38:44.2570,0.5719769597053528,0.8751541376113892,2.0656542778015137,-0.0453643798828125,-0.39105224609375,0.03045654296875
2020-12-01 18:38:44.2730,0.4398162662982941,2.0506258010864262,2.6419832706451416,-0.0453643798828125,-0.39105224609375,0.03045654296875
2020-12-01 18:38:44.2890,0.3637987077236176,1.7656388282775881,3.1949996948242188,0.2318115234375,-0.4677886962890625,-0.0507354736328125
2020-12-01 18:38:44.3060,0.22219525277614596,1.4190765619277954,3.7968928813934326,0.3923797607421875,-0.526031494140625,0.0275421142578125
2020-12-01 18:38:44.3390,-0.17220479249954224,0.8583719730377197,4.620015621185303,0.250274658203125,-0.621917724609375,0.031768798828125
2020-12-01 18:38:44.3560,-0.17220479249954224,0.8583719730377197,4.620015621185303,0.250274658203125,-0.621917724609375,0.031768798828125
2020-12-01 18:38:44.3730,-0.23337626457214355,0.9211506843566896,4.938887119293213,0.2613983154296875,-0.7248077392578125,0.0182037353515625
2020-12-01 18:38:44.3900,-0.2318878322839737,1.5203781127929688,5.330726623535156,0.2835693359375,-0.874725341796875,0.1071624755859375
2020-12-01 18:38:44.4070,-0.30072227120399475,2.001332521438598,5.73584508895874,0.3969268798828125,-1.12322998046875,0.1890106201171875
2020-12-01 18:38:44.4390,-0.35455942153930664,1.2574399709701538,5.794361114501952,0.6593017578125,-1.610504150390625,0.3186187744140625
2020-12-01 18:38:44.4560,-0.3540653884410858,0.9256993532180786,5.251716136932373,0.6593017578125,-1.610504150390625,0.3186187744140625
2020-12-01 18:38:44.4740,-0.2292081564664841,1.6023774147033691,4.277811050415038,0.69158935546875,-1.689239501953125,0.6926422119140625
2020-12-01 18:38:44.4890,0.3639704883098602,1.3588800430297852,3.2159390449523926,1.195098876953125,-1.515472412109375,0.619964599609375
2020-12-01 18:38:44.5070,0.6104964017868042,0.15278954803943634,1.828775405883789,1.450958251953125,-0.98699951171875,0.2628326416015625
2020-12-01 18:38:44.5250,0.431530624628067,-0.7068889737129211,0.6743203997612,1.4550018310546875,-0.9409332275390624,0.1864776611328125
2020-12-01 18:38:44.5560,0.3968155384063721,-0.27174735069274897,-0.49025574326515203,1.2054595947265625,-0.919342041015625,0.2598114013671875
2020-12-01 18:38:44.5730,0.5049625039100647,0.012252671644091606,-1.7146853208541868,1.099273681640625,-0.7513427734375,0.091766357421875
2020-12-01 18:38:44.5890,1.0233007669448853,0.5900177359580994,-2.522089719772339,0.937469482421875,-0.8191986083984375,0.093994140625
2020-12-01 18:38:44.6060,-1.5039842128753662,0.7963464260101318,-3.2371954917907715,0.8741607666015625,-0.6811981201171875,1.941741943359375
2020-12-01 18:38:44.6390,0.4136560261249542,-3.596390962600708,-2.920462846755981,-0.106048583984375,-2.326629638671875,1.013824462890625
2020-12-01 18:38:44.6560,-0.05347893759608269,0.5033893585205078,-3.318295955657959,-0.106048583984375,-2.326629638671875,1.013824462890625
2020-12-01 18:38:44.6730,1.0378149747848509,1.7969967126846311,-2.2260990142822266,0.1314239501953125,-0.585845947265625,-1.026763916015625
2020-12-01 18:38:44.6890,0.5558304786682129,1.3306984901428225,-2.518186092376709,0.0223541259765625,0.057525634765625,0.21038818359375
2020-12-01 18:38:44.7060,0.2007562667131424,-0.1692420244216919,-1.8555591106414795,0.384918212890625,-0.98828125,0.474822998046875
2020-12-01 18:38:44.7250,0.3302000164985657,-0.6887776255607605,-1.1846611499786377,0.6829986572265625,-1.808929443359375,0.4957122802734375
2020-12-01 18:38:44.7560,0.1727731078863144,-1.0667113065719604,-0.618965744972229,0.6311798095703125,-1.0482177734375,0.2731475830078125
2020-12-01 18:38:44.7730,-0.08391647040843964,-0.7325026988983154,-0.6900593638420105,-0.0119476318359375,-0.7523956298828125,0.28924560546875
2020-12-01 18:38:44.7890,-0.158025324344635,0.5255117416381836,-0.7342726588249207,-0.1569976806640625,-1.197723388671875,0.386932373046875
2020-12-01 18:38:44.8060,-0.14569328725337982,0.2190473973751068,-0.5243569612503052,0.2587127685546875,-1.138031005859375,0.24310302734375
2020-12-01 18:38:44.8390,-0.19619934260845184,-0.5376901030540466,-0.27542412281036377,0.405609130859375,-1.036590576171875,0.133056640625
2020-12-01 18:38:44.8560,-0.20854495465755465,-0.5657387971878052,-0.2314619868993759,0.2089385986328125,-1.0906829833984375,0.138031005859375
2020-12-01 18:38:44.8730,-0.1838209629058838,-0.34344497323036194,-0.4145561754703522,0.015472412109375,-1.0365142822265625,0.1359100341796875
2020-12-01 18:38:44.8900,-0.15446732938289642,-0.21118681132793427,-0.6049061417579651,-0.0028839111328125,-0.9989471435546876,0.1948394775390625
2020-12-01 18:38:44.9060,-0.18593046069145205,-0.14028094708919525,-0.7454075813293457,0.097991943359375,-0.89788818359375,0.2119598388671875
2020-12-01 18:38:44.9390,-0.1790325939655304,-0.11849628388881685,-0.8536003828048706,0.152862548828125,-0.90814208984375,0.1879425048828125
2020-12-01 18:38:44.9560,-0.16306935250759125,0.07290136814117433,-0.9832840561866759,0.148773193359375,-0.8809814453125,0.193145751953125
2020-12-01 18:38:44.9730,-0.11150228977203368,0.24290399253368375,-1.0284634828567505,0.2269744873046875,-0.83935546875,0.1922760009765625
2020-12-01 18:38:44.9900,-0.14502696692943573,-0.10301346331834793,-0.9808478355407716,0.3888702392578125,-0.8293304443359375,0.1235198974609375
2020-12-01 18:38:45.0070,-0.1428905725479126,-0.2198367565870285,-0.9405959844589232,0.4194793701171875,-0.88433837890625,0.1351776123046875
2020-12-01 18:38:45.0410,-0.11235104501247406,-0.3080853819847107,-1.0457168817520142,0.31817626953125,-0.899505615234375,0.1285858154296875
2020-12-01 18:38:45.0570,-0.07344172894954681,-0.08725634217262268,-1.2523634433746338,0.16241455078125,-0.90594482421875,0.1883697509765625
2020-12-01 18:38:45.0730,-0.041577272117137916,0.08248608559370041,-1.4142751693725586,0.1575927734375,-1.00250244140625,0.1455078125
2020-12-01 18:38:45.0900,0.01080684084445238,-0.06142207980155945,-1.6638388633728027,0.21453857421875,-1.045196533203125,0.0894775390625
2020-12-01 18:38:45.1070,0.029712088406085968,-0.3858885765075684,-1.8190293312072756,0.280181884765625,-1.1071319580078125,0.0521697998046875
2020-12-01 18:38:45.1390,0.07218711078166963,-0.6410220861434937,-2.1040852069854736,0.131195068359375,-1.193084716796875,0.1325225830078125
2020-12-01 18:38:45.1560,0.0474303662776947,-0.90600848197937,-2.30550217628479,-0.012969970703125,-1.319000244140625,0.1229095458984375
2020-12-01 18:38:45.1730,-0.1045415922999382,-1.0114235877990725,-2.5968616008758545,-0.21282958984375,-1.5192718505859375,0.1510009765625
2020-12-01 18:38:45.1900,-0.1617596000432968,-1.7668139934539795,-2.7548270225524902,-0.346649169921875,-1.870758056640625,0.009979248046875
2020-12-01 18:38:45.2070,-0.1452815681695938,-2.232832670211792,-2.8863117694854736,-0.4748077392578125,-2.0778350830078125,0.0842437744140625
2020-12-01 18:38:45.2260,-0.5304715633392334,-2.9124910831451416,-2.8557758331298833,-0.246612548828125,-1.9068145751953125,0.1198577880859375
2020-12-01 18:38:45.2560,-0.10656213015317917,-1.8102973699569704,-2.530891895294189,0.088043212890625,-1.918548583984375,0.413665771484375
2020-12-01 18:38:45.2730,0.2175086140632629,-0.6925707459449768,-2.200147151947021,-0.082550048828125,-1.7420501708984375,0.3097991943359375
2020-12-01 18:38:45.2900,0.4106642305850983,-0.12809884548187256,-1.8738387823104856,0.14239501953125,-1.310699462890625,0.39276123046875
2020-12-01 18:38:45.3060,0.7462843060493469,0.5409836173057556,-1.0577667951583862,0.6418304443359375,-1.1436614990234375,0.36920166015625
2020-12-01 18:38:45.3390,0.6109246015548706,-1.2268424034118652,0.404858261346817,0.7841949462890625,-0.9925384521484376,0.220855712890625
2020-12-01 18:38:45.3560,0.5198833942413329,-1.874285340309143,1.4085969924926758,0.214599609375,-0.639892578125,-0.0348358154296875
2020-12-01 18:38:45.3730,0.4607636034488678,-0.7142390012741089,2.0822653770446777,-0.196075439453125,-0.31573486328125,0.0234832763671875
2020-12-01 18:38:45.3900,0.40438368916511536,0.99172443151474,2.505190849304199,-0.2809600830078125,-0.2582855224609375,0.124114990234375
2020-12-01 18:38:45.4070,0.3624197244644165,1.9350448846817017,2.897054433822632,0.006622314453125,-0.4470062255859375,0.1132659912109375
2020-12-01 18:38:45.4260,0.3624197244644165,1.9350448846817017,2.897054433822632,0.2313079833984375,-0.6151275634765625,0.11334228515625
2020-12-01 18:38:45.4560,0.10547369718551636,2.2917921543121342,4.056591987609863,0.2136383056640625,-0.655548095703125,0.1074371337890625
2020-12-01 18:38:45.4730,-0.07777096331119537,2.3067784309387207,4.441664695739746,0.141082763671875,-0.618377685546875,0.03717041015625
2020-12-01 18:38:45.4900,-0.2665773630142212,2.1541836261749268,4.783246994018555,0.1707611083984375,-0.6929168701171875,0.044219970703125
2020-12-01 18:38:45.5070,-0.3270063400268555,2.02270245552063,5.163432598114014,0.2826690673828125,-0.81207275390625,0.0470123291015625
2020-12-01 18:38:45.5390,-0.4190875291824341,1.7056708335876465,5.6648597717285165,0.48724365234375,-1.06658935546875,0.1752471923828125
2020-12-01 18:38:45.5560,-0.3050251603126526,1.4198381900787354,5.995438575744629,0.623870849609375,-1.2330322265625,0.2051849365234375
2020-12-01 18:38:45.5730,-0.2588576674461365,0.951298713684082,5.776080131530763,0.6430816650390625,-1.3324737548828125,0.234100341796875
2020-12-01 18:38:45.5900,-0.3362666964530945,1.0228029489517212,5.210858345031738,0.620086669921875,-1.6627044677734375,0.4284820556640625
2020-12-01 18:38:45.6060,-0.3362666964530945,1.0228029489517212,5.210858345031738,0.8773193359375,-1.8385162353515625,0.659393310546875
2020-12-01 18:38:45.6390,0.4413289427757263,1.6464705467224119,2.8087842464447017,1.3369293212890625,-1.325531005859375,0.4430999755859375
2020-12-01 18:38:45.6560,0.4457050263881683,0.5678152441978455,1.1011250019073486,1.51324462890625,-0.981903076171875,0.223114013671875
2020-12-01 18:38:45.6730,0.3930412828922272,-0.465940535068512,0.05107969418168068,1.7703094482421875,-0.961700439453125,0.2195892333984375
2020-12-01 18:38:45.6900,0.4298650920391083,-0.5401290059089661,-1.1907293796539309,1.397369384765625,-0.85272216796875,0.2198638916015625
2020-12-01 18:38:45.7070,0.4298650920391083,-0.5401290059089661,-1.1907293796539309,1.2132415771484375,-0.887542724609375,0.2381439208984375
2020-12-01 18:38:45.7390,1.6015619039535522,-1.238296627998352,-2.506600379943848,1.043212890625,-0.935333251953125,0.1822967529296875
2020-12-01 18:38:45.7570,-1.5433130264282229,-3.057598114013672,-1.509513020515442,-0.4346771240234375,-1.403076171875,1.169189453125
2020-12-01 18:38:45.7730,0.5902856588363647,2.436955213546753,-4.637223720550537,-1.212799072265625,-3.5592193603515625,-1.019805908203125
2020-12-01 18:38:45.7900,0.4716985523700714,1.7844712734222412,-2.46858286857605,0.41314697265625,-1.3667755126953125,0.330291748046875
2020-12-01 18:38:45.8070,0.4716985523700714,1.7844712734222412,-2.46858286857605,0.42034912109375,0.125579833984375,-1.06951904296875
2020-12-01 18:38:45.8390,0.4569840729236603,0.25683686137199396,-1.9807982444763184,0.5536956787109375,-0.09161376953125,0.642913818359375
2020-12-01 18:38:45.8570,0.25000423192977905,-0.7513996958732605,-0.9326211810112,0.47705078125,-1.3956146240234375,0.448883056640625
2020-12-01 18:38:45.8730,0.4875587522983551,-1.0472116470336914,-0.4769710898399353,0.6610565185546875,-1.8607025146484373,0.287750244140625
2020-12-01 18:38:45.8900,0.33068203926086426,-1.483144998550415,-0.31216615438461304,0.29229736328125,-0.9642486572265624,0.1538848876953125
2020-12-01 18:38:45.9060,0.33068203926086426,-1.483144998550415,-0.31216615438461304,-0.1454315185546875,-0.82464599609375,0.4195709228515625
2020-12-01 18:38:45.9390,-0.05344245210289955,0.3447789549827576,-0.2346878796815872,-0.0649871826171875,-1.2824249267578125,0.4923553466796875
2020-12-01 18:38:45.9560,-0.0956527590751648,-0.24856480956077576,-0.053452573716640465,0.2987213134765625,-1.131561279296875,0.204345703125
2020-12-01 18:38:45.9730,-0.13867852091789246,-0.6281643509864807,0.08547735214233397,0.243927001953125,-1.03668212890625,0.2038726806640625
2020-12-01 18:38:45.9900,-0.13203153014183044,-0.608202338218689,0.09995190054178238,0.007781982421875,-1.0489044189453125,0.202362060546875
2020-12-01 18:38:46.0070,-0.13203153014183044,-0.608202338218689,0.09995190054178238,-0.1080169677734375,-0.9874725341796876,0.2186279296875
2020-12-01 18:38:46.0390,-0.08138300478458405,-0.017038105055689808,-0.4641277194023132,-0.1087646484375,-0.9315948486328124,0.18359375
2020-12-01 18:38:46.0570,-0.1293657124042511,-0.1966853588819504,-0.6807029247283936,0.047027587890625,-0.83837890625,0.157318115234375
2020-12-01 18:38:46.0730,-0.06491880863904953,-0.3948487937450409,-0.7854753732681274,0.1199798583984375,-0.837249755859375,0.1737213134765625
2020-12-01 18:38:46.0900,-0.0896715596318245,-0.13940636813640594,-1.0170936584472656,0.04296875,-0.816375732421875,0.3197174072265625
2020-12-01 18:38:46.1060,-0.0896715596318245,-0.13940636813640594,-1.0170936584472656,0.04296875,-0.816375732421875,0.3197174072265625
2020-12-01 18:38:46.1390,0.0036594495177268978,-0.22256463766098025,-1.1316133737564087,0.227691650390625,-0.8081817626953125,0.1680145263671875
2020-12-01 18:38:46.1560,0.032346222549676895,0.0204584039747715,-1.1808000802993774,0.19012451171875,-0.849273681640625,0.161865234375
2020-12-01 18:38:46.1730,-0.015970710664987564,0.06869464367628098,-1.2773237228393557,0.29046630859375,-0.859588623046875,0.222930908203125
2020-12-01 18:38:46.1900,-0.015970710664987564,0.06869464367628098,-1.2773237228393557,0.288848876953125,-0.9512786865234376,0.1672210693359375
2020-12-01 18:38:46.2060,0.04740426689386368,-0.18349552154541016,-1.3431527614593506,0.288848876953125,-0.9512786865234376,0.1672210693359375
2020-12-01 18:38:46.2390,0.01834811456501484,0.36350658535957336,-1.842155694961548,-0.1568450927734375,-1.04498291015625,0.3505096435546875
2020-12-01 18:38:46.2560,0.07301535457372665,0.9631476402282716,-2.029962539672852,-0.0162506103515625,-1.2230377197265625,0.3721923828125
2020-12-01 18:38:46.2730,0.18859495222568512,0.13273301720619202,-2.1886353492736816,0.3646697998046875,-1.168975830078125,0.1118927001953125
2020-12-01 18:38:46.2900,0.18859495222568512,0.13273301720619202,-2.1886353492736816,0.358978271484375,-1.3152618408203125,-0.0602874755859375
2020-12-01 18:38:46.3060,0.32937124371528625,-0.8561080098152161,-2.1803343296051025,0.358978271484375,-1.3152618408203125,-0.0602874755859375
2020-12-01 18:38:46.3390,0.2681502401828766,-0.9182406067848206,-2.759582042694092,-0.28662109375,-1.546417236328125,-0.1068267822265625
2020-12-01 18:38:46.3560,0.18943357467651367,-1.1480841636657717,-2.78863525390625,-0.1981964111328125,-1.670074462890625,0.002471923828125
2020-12-01 18:38:46.3730,0.0132305845618248,-2.0291223526000977,-2.802137851715088,-0.3869781494140625,-2.0045623779296875,-0.0426788330078125
2020-12-01 18:38:46.3900,0.0132305845618248,-2.0291223526000977,-2.802137851715088,-0.0310516357421875,-2.1689910888671875,-0.0833282470703125
2020-12-01 18:38:46.4070,-0.1534542739391327,-3.215254306793213,-2.6741743087768555,-0.0310516357421875,-2.1689910888671875,-0.0833282470703125
2020-12-01 18:38:46.4260,-0.182837188243866,-3.2670207023620605,-2.4997308254241943,0.1275482177734375,-1.95855712890625,0.224945068359375
2020-12-01 18:38:46.4560,0.15518052875995636,-0.8597338795661926,-1.4002714157104492,-0.2119293212890625,-1.4473724365234375,0.39739990234375
2020-12-01 18:38:46.4730,0.6291837692260742,0.03533482179045677,-1.507565975189209,0.148529052734375,-1.0958709716796875,0.1777801513671875
2020-12-01 18:38:46.4900,0.6291837692260742,0.03533482179045677,-1.507565975189209,1.0363922119140625,-0.920684814453125,0.5481719970703125
2020-12-01 18:38:46.5060,0.659670352935791,0.2594893574714661,-0.6053873896598816,1.0363922119140625,-0.920684814453125,0.5481719970703125
2020-12-01 18:38:46.5260,0.34441515803337097,-1.7326794862747192,0.8498008251190186,0.807342529296875,-0.7276611328125,0.1436614990234375
2020-12-01 18:38:46.5570,0.12981419265270233,-0.3011385500431061,2.4168856143951416,-0.439666748046875,-0.1043701171875,0.129608154296875
2020-12-01 18:38:46.5730,0.00956953689455986,1.997385144233704,2.6570959091186523,-0.43817138671875,-0.1639251708984375,0.185546875
2020-12-01 18:38:46.5900,0.00956953689455986,1.997385144233704,2.6570959091186523,-0.43817138671875,-0.1639251708984375,0.185546875
2020-12-01 18:38:46.6060,-0.10768891125917436,2.7044477462768555,3.021653890609741,-0.0150604248046875,-0.467620849609375,0.0745697021484375
2020-12-01 18:38:46.6390,-0.5281280279159546,1.855002522468567,4.113638401031493,0.47918701171875,-0.63067626953125,0.06396484375
2020-12-01 18:38:46.6570,-0.7809472084045409,0.8769994378089905,4.4122276306152335,0.3727569580078125,-0.6230926513671875,0.0657196044921875
2020-12-01 18:38:46.6730,-0.8228669762611389,0.6903379559516907,4.712332248687744,0.2826080322265625,-0.74932861328125,0.1170654296875
2020-12-01 18:38:46.6900,-0.8228669762611389,0.6903379559516907,4.712332248687744,0.2826080322265625,-0.74932861328125,0.1170654296875
2020-12-01 18:38:46.7070,-0.7990505695343018,1.564488649368286,5.105310440063477,0.325653076171875,-0.8125457763671875,0.2519989013671875
2020-12-01 18:38:46.7250,-0.6645321846008301,2.0378446578979488,5.379340648651123,0.481658935546875,-0.933502197265625,0.2412872314453125
2020-12-01 18:38:46.7580,-0.6214573979377747,1.7058169841766355,5.1673760414123535,0.574005126953125,-1.3836517333984375,0.3751373291015625
2020-12-01 18:38:46.7730,-0.6214573979377747,1.7058169841766355,5.1673760414123535,0.8069915771484375,-1.6096954345703125,0.5883026123046875
2020-12-01 18:38:46.7900,-0.4686225950717926,1.3204737901687622,4.584132194519043,0.8069915771484375,-1.6096954345703125,0.5883026123046875
2020-12-01 18:38:46.8060,0.005720470100641251,0.9529709219932556,3.864180088043213,1.281951904296875,-1.511505126953125,0.5818328857421875
2020-12-01 18:38:46.8390,0.4706564545631409,0.2420792132616043,1.0984591245651243,1.46893310546875,-1.11761474609375,0.283355712890625
2020-12-01 18:38:46.8570,0.3829982578754425,-0.188179224729538,-0.053090915083885186,1.4156494140625,-1.0605926513671875,0.310546875
2020-12-01 18:38:46.8730,0.3829982578754425,-0.188179224729538,-0.053090915083885186,1.3147125244140625,-0.9760284423828124,0.3009185791015625
2020-12-01 18:38:46.8900,0.3989375233650208,-0.054951399564743035,-1.1475459337234497,1.3147125244140625,-0.9760284423828124,0.3009185791015625
2020-12-01 18:38:46.9060,0.6110415458679199,0.3064888119697571,-2.1563453674316406,1.0995330810546875,-0.90960693359375,0.291015625
2020-12-01 18:38:46.9390,0.3734883666038513,-3.919600009918213,-2.7060892581939697,0.15069580078125,-2.490951538085937,-1.47100830078125
2020-12-01 18:38:46.9570,0.414346843957901,1.0843273401260376,-3.0817575454711914,-0.5195770263671875,-2.48138427734375,0.6675872802734375
2020-12-01 18:38:46.9730,0.414346843957901,1.0843273401260376,-3.0817575454711914,-0.3345947265625,-0.708984375,-0.3499908447265625
2020-12-01 18:38:46.9900,1.1143752336502075,1.719988465309143,-2.281405448913574,-0.3345947265625,-0.708984375,-0.3499908447265625
2020-12-01 18:38:47.0060,0.5094358325004578,1.6294984817504885,-2.273091554641724,0.2007293701171875,0.05462646484375,0.199737548828125
2020-12-01 18:38:47.0250,0.12268251180648805,0.051346011459827416,-1.6088064908981323,0.3997802734375,-0.719146728515625,0.3380584716796875
2020-12-01 18:38:47.0570,0.36544322967529297,-1.5563631057739258,-0.5984642505645752,0.4813690185546875,-1.37548828125,0.148162841796875
2020-12-01 18:38:47.0740,0.36544322967529297,-1.5563631057739258,-0.5984642505645752,-0.02496337890625,-0.7330780029296875,0.2237091064453125
2020-12-01 18:38:47.0900,0.12792333960533142,-1.100215196609497,-0.6907877922058105,-0.02496337890625,-0.7330780029296875,0.2237091064453125
2020-12-01 18:38:47.1060,-0.02735519222915173,0.2295362502336502,-0.6479601263999939,-0.23046875,-1.09088134765625,0.2890167236328125
2020-12-01 18:38:47.1390,-0.06023510918021203,-0.29957258701324463,-0.3806224465370178,0.2441558837890625,-1.0317840576171875,0.1616363525390625
2020-12-01 18:38:47.1570,-0.08271272480487822,-0.3358810842037201,-0.3254183232784271,0.1450042724609375,-1.021392822265625,0.20196533203125
2020-12-01 18:38:47.1730,-0.08271272480487822,-0.3358810842037201,-0.3254183232784271,0.1450042724609375,-1.021392822265625,0.20196533203125
2020-12-01 18:38:47.1900,-0.08452979475259781,-0.13637728989124298,-0.503815233707428,0.0190887451171875,-0.9402618408203124,0.1309051513671875
2020-12-01 18:38:47.2070,-0.06560084968805313,-0.04160124063491821,-0.6612394452095032,-0.0303955078125,-0.949310302734375,0.1377105712890625
2020-12-01 18:38:47.2250,-0.05263098701834679,-0.02117772400379181,-0.8201843500137329,0.0569000244140625,-0.9428558349609376,0.176483154296875
2020-12-01 18:38:47.2570,-0.03459899127483368,-0.22026365995407104,-0.8830573558807373,0.1050567626953125,-0.91607666015625,0.2095184326171875
2020-12-01 18:38:47.2730,-0.03326501324772835,-0.12060524523258208,-1.040060043334961,0.1050567626953125,-0.91607666015625,0.2095184326171875
2020-12-01 18:38:47.2900,0.022718362510204315,0.06090516224503518,-1.1172040700912476,0.1347808837890625,-0.897857666015625,0.1957244873046875
2020-12-01 18:38:47.3070,0.010452907532453535,0.24330852925777435,-1.2143697738647459,0.2108001708984375,-0.8795013427734375,0.1837005615234375
2020-12-01 18:38:47.3390,-0.02478364296257496,-0.27361050248146057,-1.1135720014572144,0.39324951171875,-0.90496826171875,0.1620635986328125
2020-12-01 18:38:47.3570,-0.02478364296257496,-0.27361050248146057,-1.1135720014572144,0.327362060546875,-0.934844970703125,0.138275146484375
2020-12-01 18:38:47.3730,-0.04096660763025284,-0.31084176898002625,-1.1501781940460205,0.327362060546875,-0.934844970703125,0.138275146484375
2020-12-01 18:38:47.3900,-0.00296303303912282,-0.14649009704589844,-1.3667497634887695,0.150604248046875,-1.00775146484375,0.1663665771484375
2020-12-01 18:38:47.4070,0.0022272015921771526,0.049088716506958015,-1.5243608951568604,0.1238861083984375,-1.0921173095703125,0.1610565185546875
2020-12-01 18:38:47.4250,-0.025159148499369618,0.07174236327409744,-1.7137659788131714,0.241363525390625,-1.146942138671875,0.1335906982421875
2020-12-01 18:38:47.4570,0.02298654243350029,-0.3050733506679535,-1.9314663410186768,0.0898895263671875,-1.2758636474609375,0.13580322265625
2020-12-01 18:38:47.4730,0.0452343225479126,-0.5723231434822083,-2.2123644351959233,0.0898895263671875,-1.2758636474609375,0.13580322265625
2020-12-01 18:38:47.4900,-0.0017534252256155016,-0.9384431242942809,-2.399110555648804,-0.1467742919921875,-1.4383392333984375,0.0374298095703125
2020-12-01 18:38:47.5070,-0.08743850141763687,-1.2288740873336792,-2.7450413703918457,-0.319122314453125,-1.68243408203125,0.10003662109375
2020-12-01 18:38:47.5400,-0.0997992977499962,-2.7385621070861816,-2.85892653465271,-0.3579254150390625,-2.11676025390625,0.011566162109375
2020-12-01 18:38:47.5570,-0.0997992977499962,-2.7385621070861816,-2.85892653465271,0.0337066650390625,-1.806182861328125,0.2892303466796875
2020-12-01 18:38:47.5730,-0.4097241461277008,-2.969027042388916,-2.8093068599700928,0.0337066650390625,-1.806182861328125,0.2892303466796875
2020-12-01 18:38:47.5900,0.1380891650915146,-1.6464297771453855,-2.2566759586334233,0.0435028076171875,-1.8785552978515625,0.3344268798828125
2020-12-01 18:38:47.6070,0.4815847277641296,-0.5499510169029236,-2.1719086170196533,-0.121734619140625,-1.5041046142578125,0.271636962890625
2020-12-01 18:38:47.6250,0.7744038105010986,-0.06292996555566788,-1.783655881881714,0.3088531494140625,-1.127593994140625,0.401763916015625
2020-12-01 18:38:47.6570,0.7813293933868408,-0.5264754891395569,-0.5600020289421082,0.9333038330078124,-1.079620361328125,0.423858642578125
2020-12-01 18:38:47.6730,0.6929901838302612,-2.46924376487732,0.8572680950164795,0.49267578125,-0.8716583251953125,-0.050445556640625
2020-12-01 18:38:47.6900,0.6121174693107605,-1.9686118364334104,1.6219420433044434,-0.0654296875,-0.4549713134765625,0.0062103271484375
2020-12-01 18:38:47.7060,0.5312918424606323,-0.2307879477739334,2.092651605606079,-0.44873046875,-0.2007293701171875,0.0208892822265625
2020-12-01 18:38:47.7250,0.5362756848335266,1.5876727104187012,2.416677951812744,-0.2691497802734375,-0.3130950927734375,0.0257415771484375
2020-12-01 18:38:47.7570,0.5272420048713684,2.245654582977295,2.843296766281128,0.1221771240234375,-0.5384674072265625,-0.0403900146484375
2020-12-01 18:38:47.7730,0.3997095823287964,2.1738855838775635,3.533524513244629,0.38372802734375,-0.617584228515625,-0.0576629638671875
2020-12-01 18:38:47.7900,0.2664508521556854,1.966044545173645,4.147074222564696,0.3272705078125,-0.5733642578125,-0.1085052490234375
2020-12-01 18:38:47.8070,0.017302025109529495,1.9224408864974976,4.438213348388672,0.1916961669921875,-0.615875244140625,-0.0474090576171875
2020-12-01 18:38:47.8250,-0.23969034850597384,1.7487527132034302,4.645996570587158,0.20361328125,-0.7349090576171875,-0.0165252685546875
2020-12-01 18:38:47.8560,-0.3815958201885224,1.5134153366088867,4.993898868560791,0.3642730712890625,-0.844512939453125,0.011627197265625
2020-12-01 18:38:47.8730,-0.4589486718177795,1.5845938920974731,5.477881908416748,0.48614501953125,-1.0518035888671875,0.1329193115234375
2020-12-01 18:38:47.8900,-0.5187768340110779,1.683389663696289,5.754781246185303,0.4936981201171875,-1.26324462890625,0.2025146484375
2020-12-01 18:38:47.9070,-0.5295088291168213,1.2910053730010986,5.6186795234680185,0.4987945556640625,-1.5134735107421875,0.21429443359375
2020-12-01 18:38:47.9390,-0.5226227045059204,1.3008753061294556,4.981303215026856,0.962890625,-1.6848907470703125,0.633819580078125
2020-12-01 18:38:47.9570,-0.1459484100341797,1.6463632583618164,3.8824808597564697,0.962890625,-1.6848907470703125,0.633819580078125
2020-12-01 18:38:47.9730,0.463175117969513,1.3613922595977783,2.656006336212158,1.318084716796875,-1.180023193359375,0.4677734375
2020-12-01 18:38:47.9900,0.4940558075904846,-0.237024798989296,1.3920233249664309,1.597869873046875,-0.9811553955078124,0.217254638671875
2020-12-01 18:38:48.0070,0.3413006067276001,-0.8626891970634459,0.2040194422006607,1.466156005859375,-0.9870452880859376,0.26702880859375
2020-12-01 18:38:48.0260,0.3678525984287262,-0.19320380687713626,-1.1980003118515017,1.1901397705078125,-0.8986968994140625,0.4001617431640625
2020-12-01 18:38:48.0570,0.3733179271221161,0.04320552572607994,-2.1292450428009038,1.1815643310546875,-0.8076934814453125,0.2098236083984375
2020-12-01 18:38:48.0730,2.312255859375,0.0021843246649950747,-2.5575270652771,1.0165557861328125,-0.812652587890625,0.3625946044921875
2020-12-01 18:38:48.0900,-1.921441435813904,-0.4306216835975647,-2.2304506301879883,0.14959716796875,-1.3610992431640625,1.7645721435546875
2020-12-01 18:38:48.1070,0.9316824078559875,-0.5760742425918579,-3.7869503498077393,-0.6076812744140625,-3.706985473632813,-1.8740081787109373
2020-12-01 18:38:48.1390,0.6606506109237671,2.4273815155029297,-2.253922700881958,0.2094268798828125,-1.1389617919921875,0.53082275390625
2020-12-01 18:38:48.1560,0.6432276964187622,0.6796493530273438,-2.388954401016236,0.053619384765625,-0.0275726318359375,-0.862335205078125
2020-12-01 18:38:48.1730,0.4985887706279754,0.3079767227172852,-1.7957439422607422,0.5877838134765625,-0.4978790283203125,0.26824951171875
2020-12-01 18:38:48.1900,0.5859913229942322,-1.3576840162277222,-0.9643189311027528,0.617523193359375,-1.727935791015625,0.169921875
2020-12-01 18:38:48.2070,0.5862312316894531,-1.913522243499756,-0.4262173473834992,0.5550994873046875,-1.5164337158203125,0.279693603515625
2020-12-01 18:38:48.2260,0.20141060650348666,-1.4106391668319702,-0.5579924583435059,-0.0849761962890625,-0.723388671875,0.34906005859375
2020-12-01 18:38:48.2560,-0.05727074667811394,0.37880802154541016,-0.5719324946403503,-0.3486480712890625,-0.9995269775390624,0.65631103515625
2020-12-01 18:38:48.2730,-0.09320637583732604,0.7216618061065674,-0.4127137959003449,0.119781494140625,-1.1719512939453125,0.30438232421875
2020-12-01 18:38:48.2900,-0.0688973069190979,-0.35552772879600525,-0.2173949033021927,0.40155029296875,-1.012969970703125,0.0252227783203125
2020-12-01 18:38:48.3070,-0.102990560233593,-0.6068265438079834,-0.021198762580752373,0.25518798828125,-1.062164306640625,0.1335601806640625
2020-12-01 18:38:48.3250,-0.08346373587846756,-0.5081766843795776,-0.1980725973844528,-0.036865234375,-1.0463409423828125,0.101806640625
2020-12-01 18:38:48.3570,-0.10083606839179993,0.11961428076028825,-0.5237370133399963,-0.1566619873046875,-0.96234130859375,0.2416229248046875
2020-12-01 18:38:48.3730,-0.07259617000818253,0.01905971206724644,-0.684337854385376,0.003448486328125,-0.9027252197265624,0.1942138671875
2020-12-01 18:38:48.3900,-0.10869159549474716,-0.2141879200935364,-0.8449591994285583,0.1158294677734375,-0.857940673828125,0.220703125
2020-12-01 18:38:48.4070,-0.07917231321334839,-0.37631717324256897,-1.0070258378982544,0.0676116943359375,-0.900054931640625,0.23675537109375
2020-12-01 18:38:48.4250,-0.04191336035728455,-0.21492242813110352,-1.1923787593841553,0.094482421875,-0.8377532958984375,0.253143310546875
2020-12-01 18:38:48.4570,-0.01564713567495346,-0.15618294477462769,-1.2012094259262085,0.074615478515625,-0.874114990234375,0.1670379638671875
2020-12-01 18:38:48.4730,-0.05338572710752487,0.3858169317245483,-1.254449486732483,0.097381591796875,-1.017730712890625,0.28619384765625
2020-12-01 18:38:48.4900,-0.0030043120495975018,-0.09035999327898027,-1.1837804317474363,0.46624755859375,-0.9912109375,0.0501861572265625
2020-12-01 18:38:48.5070,-0.0693306028842926,-0.44775834679603577,-0.962132453918457,0.5677642822265625,-0.8536529541015625,0.036651611328125
2020-12-01 18:38:48.5390,-0.1052720919251442,-0.1486848145723343,-1.0921945571899414,0.2514190673828125,-0.9304351806640624,0.1660003662109375
2020-12-01 18:38:48.5570,-0.08623555302619934,0.09909062832593918,-1.3309917449951172,0.1136932373046875,-0.9863128662109376,0.2466888427734375
2020-12-01 18:38:48.5730,-0.057020675390958786,0.3372661769390106,-1.5310672521591189,0.0317230224609375,-1.0754852294921875,0.2797088623046875
2020-12-01 18:38:48.5900,-0.043362122029066086,0.14165939390659332,-1.6186394691467283,0.16461181640625,-1.1030120849609375,0.193145751953125
2020-12-01 18:38:48.6070,0.050980892032384865,-0.30984094738960266,-1.8021906614303589,0.285430908203125,-1.2173919677734375,0.1015625
2020-12-01 18:38:48.6250,0.20620669424533844,-0.7983986735343933,-1.9795236587524412,0.1502532958984375,-1.2278900146484375,0.0207366943359375
2020-12-01 18:38:48.6570,0.24679434299468994,-1.2008925676345823,-2.2021925449371342,-0.0079803466796875,-1.224700927734375,0.0655059814453125
2020-12-01 18:38:48.6730,0.1093081161379814,-1.3221681118011477,-2.431617259979248,-0.185272216796875,-1.476898193359375,0.1300811767578125
2020-12-01 18:38:48.6900,0.07676135748624803,-2.843864917755127,-2.4224071502685547,-0.2885894775390625,-1.8150482177734373,-0.1081390380859375
2020-12-01 18:38:48.7070,-0.1842697113752365,-2.261910915374756,-2.7717266082763667,-0.5772857666015625,-1.9006805419921875,0.197723388671875
2020-12-01 18:38:48.7250,-0.1842697113752365,-2.261910915374756,-2.7717266082763667,-0.15618896484375,-1.8981781005859373,0.138671875
2020-12-01 18:38:48.7570,-0.20821179449558255,-2.5794692039489746,-2.654609203338623,0.0499725341796875,-1.942718505859375,0.364501953125
2020-12-01 18:38:48.7730,0.2382402569055557,-1.190761923789978,-2.4520866870880127,-0.257843017578125,-1.8733367919921875,0.25567626953125
2020-12-01 18:38:48.7900,0.5096909403800964,0.04678987711668015,-2.410597801208496,-0.1617431640625,-1.36865234375,0.2862396240234375
2020-12-01 18:38:48.8070,0.824432909488678,0.8935185074806213,-1.8484846353530884,0.5506134033203125,-1.107086181640625,0.4156036376953125
2020-12-01 18:38:48.8260,0.824432909488678,0.8935185074806213,-1.8484846353530884,0.9962615966796876,-1.0615081787109375,0.2374420166015625
2020-12-01 18:38:48.8570,0.5196077823638916,-1.7356613874435425,1.0775469541549685,0.30548095703125,-0.697723388671875,0.0102386474609375
2020-12-01 18:38:48.8730,0.32106271386146545,-0.6027268767356873,1.6256680488586426,-0.295989990234375,-0.316436767578125,0.0235443115234375
2020-12-01 18:38:48.8900,0.182032123208046,1.4316672086715698,1.9805316925048828,-0.42669677734375,-0.250030517578125,0.094970703125
2020-12-01 18:38:48.9070,0.182032123208046,1.4316672086715698,1.9805316925048828,-0.0187835693359375,-0.459259033203125,0.0582733154296875
2020-12-01 18:38:48.9390,0.10594241321086884,2.258836269378662,3.0215601921081543,0.2774200439453125,-0.5716400146484375,0.0285186767578125
2020-12-01 18:38:48.9570,-0.01570572517812252,1.8787107467651367,3.52675724029541,0.3775787353515625,-0.5543060302734375,0.0101776123046875
2020-12-01 18:38:48.9730,-0.1968291699886322,1.389809012413025,3.980189561843872,0.385345458984375,-0.574127197265625,0.027862548828125
2020-12-01 18:38:48.9900,-0.3738729357719421,0.6911960244178772,4.373579502105713,0.3233489990234375,-0.667266845703125,0.0476226806640625
2020-12-01 18:38:49.0070,-0.3738729357719421,0.6911960244178772,4.373579502105713,0.337615966796875,-0.7339019775390625,0.0837249755859375
2020-12-01 18:38:49.0250,-0.3932213187217712,0.5713367462158203,4.73436164855957,0.3954620361328125,-0.877197265625,0.1779327392578125
2020-12-01 18:38:49.0570,-0.223498597741127,1.7516942024230957,5.4210638999938965,0.339569091796875,-1.0047149658203125,0.2462158203125
2020-12-01 18:38:49.0730,-0.3134516477584839,2.0531456470489498,5.444944858551025,0.3271942138671875,-1.2534637451171875,0.26373291015625
2020-12-01 18:38:49.0900,-0.3793957829475403,1.4011236429214478,5.40453052520752,0.60357666015625,-1.5896148681640625,0.2728118896484375
2020-12-01 18:38:49.1070,-0.3793957829475403,1.4011236429214478,5.40453052520752,0.8472900390625,-1.6681060791015625,0.407379150390625
2020-12-01 18:38:49.1260,-0.29552245140075684,1.1526038646697998,4.906845569610597,0.8472900390625,-1.6681060791015625,0.407379150390625
2020-12-01 18:38:49.1570,0.3502919673919678,0.7336971759796143,2.9366397857666016,1.232879638671875,-1.197723388671875,0.4014434814453125
2020-12-01 18:38:49.1730,0.40146219730377203,0.7017567753791809,1.422412991523743,1.255340576171875,-1.075347900390625,0.2719573974609375
2020-12-01 18:38:49.1900,0.32975926995277405,0.16973550617694855,0.2512553930282593,1.59503173828125,-1.079193115234375,0.1734466552734375
2020-12-01 18:38:49.2070,0.32975926995277405,0.16973550617694855,0.2512553930282593,1.561981201171875,-0.766754150390625,0.1447296142578125
2020-12-01 18:38:49.2250,0.3856782019138336,-0.1349346488714218,-0.9837474822998048,1.561981201171875,-0.766754150390625,0.1447296142578125
2020-12-01 18:38:49.2570,0.6536156535148621,-1.1603193283081057,-2.0877935886383057,0.986724853515625,-0.7563934326171875,1.0936431884765625
2020-12-01 18:38:49.2730,-0.5207467675209045,-0.32096603512763977,-3.467280387878418,-0.564727783203125,-2.4594268798828125,-0.19757080078125
2020-12-01 18:38:49.2900,0.4946613907814026,0.20997001230716705,-3.3847811222076416,-0.1844329833984375,-3.121932983398437,-0.1596221923828125
2020-12-01 18:38:49.3070,0.4946613907814026,0.20997001230716705,-3.3847811222076416,-0.1844329833984375,-3.121932983398437,-0.1596221923828125
2020-12-01 18:38:49.3250,0.8619621992111206,0.9135750532150269,-2.1951329708099365,0.4982147216796875,-0.66619873046875,-0.2381744384765625
2020-12-01 18:38:49.3570,0.4363578855991364,-1.0262466669082642,-1.9335790872573853,-0.1349334716796875,-0.7464599609375,0.355743408203125
2020-12-01 18:38:49.3730,0.4126887619495392,0.9904498457908629,-1.3748291730880735,0.0080413818359375,-1.73870849609375,0.7284088134765625
2020-12-01 18:38:49.3900,0.3136170506477356,0.2343786805868149,-0.6969023942947388,0.685943603515625,-1.1902008056640625,0.343597412109375
2020-12-01 18:38:49.4070,0.3136170506477356,0.2343786805868149,-0.6969023942947388,0.685943603515625,-1.1902008056640625,0.343597412109375
2020-12-01 18:38:49.4260,0.02781405486166477,-1.1379913091659546,-0.17315314710140228,0.6586456298828125,-0.709259033203125,0.2172698974609375
2020-12-01 18:38:49.4570,-0.09883257001638412,-0.031127026304602626,-0.041830535978078835,-0.10455322265625,-1.193695068359375,0.33184814453125
2020-12-01 18:38:49.4730,-0.13233406841754913,-0.14123861491680145,0.11184503883123398,0.0703125,-1.07464599609375,0.15753173828125
2020-12-01 18:38:49.4900,-0.13233406841754913,-0.14123861491680145,0.11184503883123398,0.083892822265625,-1.1053619384765625,0.1050262451171875
2020-12-01 18:38:49.5070,-0.12505830824375153,-0.37040257453918457,0.07083556056022644,0.083892822265625,-1.1053619384765625,0.1050262451171875
2020-12-01 18:38:49.5250,-0.07207605987787248,-0.5132102966308594,-0.01888420805335045,-0.0223846435546875,-1.047393798828125,0.1548004150390625
2020-12-01 18:38:49.5570,-0.14043541252613068,-0.1248476579785347,-0.3858475685119629,0.0295867919921875,-0.8627777099609375,0.21142578125
2020-12-01 18:38:49.5730,-0.14299550652503967,-0.28062793612480164,-0.5871133208274841,0.0543975830078125,-0.8254852294921875,0.2244415283203125
2020-12-01 18:38:49.5900,-0.14299550652503967,-0.28062793612480164,-0.5871133208274841,0.0751953125,-0.82550048828125,0.2213134765625
2020-12-01 18:38:49.6070,-0.14986352622509005,-0.2504420578479767,-0.7539132237434387,0.0751953125,-0.82550048828125,0.2213134765625
2020-12-01 18:38:49.6260,-0.10034391283988953,-0.2564134001731873,-1.05238139629364,0.0912628173828125,-0.7725067138671875,0.2457122802734375
2020-12-01 18:38:49.6570,-0.04207341745495796,-0.031992286443710334,-1.2868434190750122,-0.00225830078125,-0.9029693603515624,0.251739501953125
2020-12-01 18:38:49.6730,-0.04968286678195,0.326438844203949,-1.3412917852401731,0.173583984375,-0.98785400390625,0.2025146484375
2020-12-01 18:38:49.6900,-0.04968286678195,0.326438844203949,-1.3412917852401731,0.438507080078125,-0.9469757080078124,0.0488433837890625
2020-12-01 18:38:49.7070,0.014081996865570543,-0.12753452360630035,-1.3272483348846436,0.438507080078125,-0.9469757080078124,0.0488433837890625
2020-12-01 18:38:49.7250,0.032870598137378686,-0.5267913937568665,-1.2681996822357178,0.429107666015625,-0.9571685791015624,0.028717041015625
2020-12-01 18:38:49.7570,0.0770053043961525,0.17356912791728973,-1.8660577535629272,-0.0980987548828125,-0.978607177734375,0.2191619873046875
2020-12-01 18:38:49.7730,-0.04434935376048088,0.6654408574104309,-1.9078369140625,-0.011199951171875,-1.2424468994140625,0.39068603515625
2020-12-01 18:38:49.7900,-0.04434935376048088,0.6654408574104309,-1.9078369140625,0.500152587890625,-1.41033935546875,0.22412109375
2020-12-01 18:38:49.8070,0.028756814077496532,0.17426873743534088,-1.9189697504043581,0.500152587890625,-1.41033935546875,0.22412109375
2020-12-01 18:38:49.8250,0.07754406332969667,-1.286940336227417,-1.501880407333374,0.72064208984375,-1.339935302734375,-0.1455535888671875
2020-12-01 18:38:49.8570,-0.1810816377401352,-0.2606462240219116,-2.236096143722534,-0.3611907958984375,-1.3887786865234375,0.2170257568359375
2020-12-01 18:38:49.8730,-0.08666165918111801,-1.5072256326675415,-2.1005542278289795,-0.2634429931640625,-1.6041717529296875,0.0662689208984375
2020-12-01 18:38:49.8900,-0.08666165918111801,-1.5072256326675415,-2.1005542278289795,-0.2634429931640625,-1.6041717529296875,0.0662689208984375
2020-12-01 18:38:49.9070,-0.14327406883239746,-1.7645490169525146,-2.526768684387207,-0.2976837158203125,-1.6915283203125,0.310791015625
2020-12-01 18:38:49.9390,-0.5935317873954773,-2.273731231689453,-2.8129115104675293,-0.197601318359375,-1.65283203125,0.3749542236328125
2020-12-01 18:38:49.9570,0.04790467396378517,-1.3477131128311155,-2.750651836395264,-0.041748046875,-1.7983245849609375,0.3423614501953125
2020-12-01 18:38:49.9730,0.2300957888364792,-0.5100898742675781,-2.710158109664917,0.069305419921875,-1.696502685546875,0.40289306640625
2020-12-01 18:38:49.9900,0.2300957888364792,-0.5100898742675781,-2.710158109664917,0.069305419921875,-1.696502685546875,0.40289306640625
2020-12-01 18:38:50.0070,0.5615421533584595,-0.5885918736457825,-2.132800817489624,0.3718414306640625,-1.4422454833984375,0.3268890380859375
2020-12-01 18:38:50.0260,0.5467866659164429,-1.1936466693878174,-1.1033759117126465,0.686614990234375,-1.156036376953125,0.369415283203125
2020-12-01 18:38:50.0560,0.268423467874527,-1.828726410865784,0.938905954360962,-0.1578521728515625,-0.5490264892578125,0.050018310546875
2020-12-01 18:38:50.0730,0.268423467874527,-1.828726410865784,0.938905954360962,-0.382293701171875,-0.3006591796875,-0.0236358642578125
2020-12-01 18:38:50.0900,0.2529398500919342,-0.4003865718841553,1.1726670265197754,-0.382293701171875,-0.3006591796875,-0.0236358642578125
2020-12-01 18:38:50.1070,0.29590436816215515,1.5873776674270632,1.7136698961257937,-0.1728363037109375,-0.4218597412109375,0.060882568359375
2020-12-01 18:38:50.1260,0.2556991577148437,2.557446002960205,2.3573215007781982,0.1870574951171875,-0.4803009033203125,0.147735595703125
2020-12-01 18:38:50.1570,0.06822139769792558,2.0738394260406494,3.563260555267334,0.255859375,-0.513946533203125,0.0375823974609375
2020-12-01 18:38:50.1730,0.06822139769792558,2.0738394260406494,3.563260555267334,0.0920867919921875,-0.5636749267578125,0.085113525390625
2020-12-01 18:38:50.1900,-0.08971284329891205,2.3981173038482666,3.8276681900024414,0.0920867919921875,-0.5636749267578125,0.085113525390625
2020-12-01 18:38:50.2070,-0.3939526379108429,2.383791208267212,4.140064239501953,0.17266845703125,-0.6248931884765625,0.172576904296875
2020-12-01 18:38:50.2260,-0.5517430305480957,1.8426281213760376,4.5271897315979,0.3883209228515625,-0.7532958984375,0.15716552734375
2020-12-01 18:38:50.2570,-0.5131801962852478,1.257714033126831,5.509713172912598,0.4965362548828125,-1.069793701171875,0.3166656494140625
2020-12-01 18:38:50.2730,-0.5131801962852478,1.257714033126831,5.509713172912598,0.3766632080078125,-1.207916259765625,0.358673095703125
2020-12-01 18:38:50.2900,-0.4393651187419891,1.6147658824920654,5.7717604637146,0.3766632080078125,-1.207916259765625,0.358673095703125
2020-12-01 18:38:50.3070,-0.2581274211406708,1.2057565450668335,5.806297302246094,0.5027618408203125,-1.459320068359375,0.3279571533203125
2020-12-01 18:38:50.3250,-0.13364914059638974,0.3612902760505676,5.5443997383117685,0.83282470703125,-1.702392578125,0.4954376220703125
2020-12-01 18:38:50.3570,0.6829202771186829,0.8140372633934021,3.2567322254180913,1.0984954833984375,-1.3665924072265625,0.5123748779296875
2020-12-01 18:38:50.3730,0.6829202771186829,0.8140372633934021,3.2567322254180913,1.70281982421875,-1.26556396484375,0.4124908447265625
2020-12-01 18:38:50.3900,0.8251069784164429,0.4704665839672089,1.6187971830368042,1.70281982421875,-1.26556396484375,0.4124908447265625
2020-12-01 18:38:50.4070,0.564787745475769,-1.0791405439376829,-0.023958595469594,1.9319305419921875,-0.8429718017578125,0.0434417724609375
2020-12-01 18:38:50.4260,0.2623088359832764,-0.09927838295698166,-1.382706880569458,1.5241851806640625,-0.8646392822265625,0.132080078125
2020-12-01 18:38:50.4570,-1.5275790691375732,-1.7782943248748782,-1.909332513809204,0.5441436767578125,-0.768829345703125,1.504608154296875
2020-12-01 18:38:50.4740,-1.5275790691375732,-1.7782943248748782,-1.909332513809204,-1.6711273193359375,-3.3530426025390625,-2.308837890625
2020-12-01 18:38:50.4910,0.12332060188055037,0.4316542148590088,-4.352508068084717,-1.6711273193359375,-3.3530426025390625,-2.308837890625
2020-12-01 18:38:50.5080,-0.03020557202398777,2.499986171722412,-3.5211298465728764,0.2845611572265625,-2.2194061279296875,0.8818511962890625
2020-12-01 18:38:50.5260,1.2389382123947144,0.7868919372558594,-2.0868785381317143,0.65814208984375,-0.4405059814453125,-1.4929351806640625
2020-12-01 18:38:50.5580,0.3620298504829407,-0.9730005264282228,-1.6340516805648804,0.2460479736328125,-1.0650634765625,0.3314971923828125
2020-12-01 18:38:50.5750,0.3620298504829407,-0.9730005264282228,-1.6340516805648804,0.2548980712890625,-1.9863739013671875,0.300262451171875
2020-12-01 18:38:50.5910,0.6349918842315674,-0.7319259047508241,-1.0852868556976318,0.2548980712890625,-1.9863739013671875,0.300262451171875
2020-12-01 18:38:50.6080,0.4526974260807037,-0.9939450025558472,-0.8652961850166321,0.4010772705078125,-1.11224365234375,0.36212158203125
2020-12-01 18:38:50.6260,0.08468559384346007,-1.0812476873397827,-0.7119319438934326,0.0253753662109375,-0.69415283203125,0.41156005859375
2020-12-01 18:38:50.6580,-0.1390439122915268,0.19624914228916168,-0.4604922533035278,0.1608734130859375,-1.175872802734375,0.34722900390625
2020-12-01 18:38:50.6740,-0.1390439122915268,0.19624914228916168,-0.4604922533035278,0.1608734130859375,-1.175872802734375,0.34722900390625
2020-12-01 18:38:50.6910,-0.15074796974658966,-0.5624356269836426,-0.2646606862545013,0.352203369140625,-1.0239105224609375,0.05810546875
2020-12-01 18:38:50.7080,-0.10105444490909576,-0.7508673667907715,-0.15232935547828674,0.1904144287109375,-1.133087158203125,0.0486297607421875
2020-12-01 18:38:50.7260,-0.06623122096061708,-0.3413805067539215,-0.4652459919452667,-0.052154541015625,-1.009033203125,0.1568145751953125
2020-12-01 18:38:50.7570,-0.08719535917043686,-0.14927497506141665,-0.5583117604255676,0.08453369140625,-0.8660430908203125,0.2573089599609375
2020-12-01 18:38:50.7730,-0.10824578255414964,-0.20524317026138306,-0.6866614818572998,0.08453369140625,-0.8660430908203125,0.2573089599609375
2020-12-01 18:38:50.7900,-0.11543577909469604,-0.2669238448143005,-0.7815919518470764,0.1350250244140625,-0.8661956787109375,0.2768707275390625
2020-12-01 18:38:50.8070,-0.11170069873332976,-0.3667135536670685,-0.7864197492599487,0.1029510498046875,-0.8549041748046875,0.2235870361328125
2020-12-01 18:38:50.8260,-0.161241352558136,0.28036534786224365,-0.9883406162261964,0.3033599853515625,-0.7810821533203125,0.441497802734375
2020-12-01 18:38:50.8570,-0.1976901739835739,0.11808695644140245,-0.8688592314720154,0.40911865234375,-0.8425140380859375,0.0813446044921875
2020-12-01 18:38:50.8740,-0.07351256906986238,-0.4792483448982239,-0.7925378084182739,0.40911865234375,-0.8425140380859375,0.0813446044921875
2020-12-01 18:38:50.8890,-0.02018383145332336,-0.4776781499385834,-0.8459051847457886,0.3353271484375,-0.8249053955078125,0.180206298828125
2020-12-01 18:38:50.9070,-0.13226322829723358,0.07191280275583267,-0.9300991296768188,0.073699951171875,-1.0144805908203125,0.2308502197265625
2020-12-01 18:38:50.9260,-0.12142043560743332,0.31892552971839905,-0.9508348107337952,0.2373504638671875,-1.129058837890625,0.126434326171875
2020-12-01 18:38:50.9570,-0.14275236427783966,0.14929014444351196,-0.9405161142349244,0.4447784423828125,-1.0347442626953125,0.0375213623046875
2020-12-01 18:38:50.9730,-0.10294529050588608,-0.032822128385305405,-1.0472217798233032,0.2679901123046875,-1.1159515380859375,-0.0454559326171875
2020-12-01 18:38:50.9900,-0.16474740207195282,0.06477127224206924,-1.3748092651367188,0.0572509765625,-1.1386566162109375,0.1934356689453125
2020-12-01 18:38:51.0070,-0.10227710008621216,-0.20216748118400574,-1.5855110883712769,-0.0313568115234375,-1.269775390625,0.3234405517578125
2020-12-01 18:38:51.0260,-0.028585838153958317,-0.5514101386070251,-1.7615827322006226,0.04541015625,-1.1863861083984375,0.31085205078125
2020-12-01 18:38:51.0570,-0.028204472735524174,-1.1644176244735718,-1.886620044708252,-0.0332794189453125,-1.230316162109375,0.15399169921875
2020-12-01 18:38:51.0730,-0.032103609293699265,-2.0518362522125244,-1.8717499971389768,-0.0796051025390625,-1.485748291015625,0.034912109375
2020-12-01 18:38:51.0900,-0.19269035756587985,-1.3091551065444946,-2.4360828399658203,-0.44671630859375,-1.5631103515625,0.107513427734375
2020-12-01 18:38:51.1070,-0.05590028315782547,-2.9433910846710205,-2.516021490097046,-0.379974365234375,-1.702239990234375,-0.3038330078125
2020-12-01 18:38:51.1260,-0.2442089468240738,-2.0475530624389653,-2.8240206241607666,-0.3523712158203125,-1.6749267578125,0.2799072265625
2020-12-01 18:38:51.1570,-0.28331106901168823,-2.316203117370605,-2.73728609085083,-0.1213226318359375,-1.6641845703125,0.2491607666015625
2020-12-01 18:38:51.1730,0.1518087089061737,-1.5974771976470947,-2.4352946281433105,0.0438995361328125,-1.7242279052734375,0.361358642578125
2020-12-01 18:38:51.1900,0.1508166790008545,-1.2728031873703003,-2.019031047821045,0.012237548828125,-1.675506591796875,0.2829132080078125
2020-12-01 18:38:51.2070,0.5537806153297424,-0.27467018365859985,-1.944730520248413,0.1396026611328125,-1.302032470703125,0.3181304931640625
2020-12-01 18:38:51.2260,0.697341799736023,-0.7841853499412537,-1.0375754833221436,0.7108612060546875,-1.0836639404296875,0.296875
2020-12-01 18:38:51.2570,0.4879648685455322,-2.0827293395996094,0.3569442629814148,0.5172576904296875,-0.8941192626953125,0.1109771728515625
2020-12-01 18:38:51.2730,0.4221509695053101,-2.004432678222656,1.1056232452392578,-0.001983642578125,-0.5713653564453125,-0.032562255859375
2020-12-01 18:38:51.2900,0.3909453749656677,-0.11234518140554428,1.5218818187713623,-0.352081298828125,-0.3141326904296875,0.0318450927734375
2020-12-01 18:38:51.3070,0.3558630347251892,2.154228687286377,1.9381107091903689,-0.265045166015625,-0.338714599609375,0.1421356201171875
2020-12-01 18:38:51.3250,0.3548774123191833,2.7422759532928467,2.448634624481201,0.0846710205078125,-0.4965972900390625,0.066986083984375
2020-12-01 18:38:51.3570,0.2288675308227539,2.630887746810913,3.2067174911499023,0.3793792724609375,-0.6026153564453125,0.102081298828125
2020-12-01 18:38:51.3730,0.09885787218809128,2.34946084022522,3.8146274089813232,0.4018096923828125,-0.58319091796875,0.0248870849609375
2020-12-01 18:38:51.3900,-0.20740991830825808,2.121300220489502,4.108417987823486,0.3301849365234375,-0.6385040283203125,0.0596771240234375
2020-12-01 18:38:51.4070,-0.4938973486423493,1.6000125408172607,4.334129333496094,0.31866455078125,-0.7360992431640625,0.059173583984375
2020-12-01 18:38:51.4400,-0.5580166578292847,1.4025468826293943,4.634537696838379,0.4933013916015625,-0.9839019775390624,0.2620086669921875
2020-12-01 18:38:51.4570,-0.5529470443725586,1.9904631376266482,5.027765274047852,0.4933013916015625,-0.9839019775390624,0.2620086669921875
2020-12-01 18:38:51.4730,-0.5176258087158203,2.21146821975708,5.302032947540283,0.488494873046875,-1.1340484619140625,0.2854461669921875
2020-12-01 18:38:51.4900,-0.5721133351325989,1.8434493541717532,5.277626991271973,0.579254150390625,-1.3890533447265625,0.360137939453125
2020-12-01 18:38:51.5070,-0.4669144451618194,1.1671186685562134,5.063690662384033,0.722686767578125,-1.478515625,0.332916259765625
2020-12-01 18:38:51.5260,-0.3175380229949951,0.5925413370132446,4.548457622528076,0.85797119140625,-1.436126708984375,0.5017547607421875
