
time,ax,ay,az,wx,wy,wz,
15:15:38:420,-0.04,0.28,-0.91,0.03,0.07,0.02,
15:15:38:421,-0.03,0.11,-0.78,0.03,0.07,0.02,
15:15:38:423,-0.03,0.11,-0.78,0.01,0.07,0.02,
15:15:38:424,0.03,0.06,-0.37,0.01,0.07,0.02,
15:15:38:425,0.02,0.03,-0.02,0.01,0.07,0.02,
15:15:38:425,0.02,0.03,-0.02,-0.00,0.08,0.02,
15:15:38:426,-0.05,0.00,0.04,-0.00,0.08,0.02,
15:15:38:426,-0.05,0.00,0.04,-0.01,0.08,0.02,
15:15:38:427,-0.05,0.00,0.04,-0.01,0.07,0.02,
15:15:38:428,-0.06,0.03,0.08,-0.01,0.07,0.02,
15:15:38:429,-0.06,0.03,0.08,-0.01,0.07,0.02,
15:15:38:429,-0.02,0.02,0.14,-0.01,0.07,0.02,
15:15:38:430,-0.02,0.02,0.14,-0.01,0.05,0.02,
15:15:38:430,-0.00,-0.08,0.25,-0.01,0.05,0.02,
15:15:38:436,-0.00,-0.08,0.25,-0.01,0.04,0.02,
15:15:38:437,0.07,-0.11,0.26,-0.01,0.04,0.02,
15:15:38:449,0.10,-0.11,0.39,-0.01,0.04,0.02,
15:15:38:449,0.10,-0.11,0.39,-0.00,0.04,0.01,
15:15:38:450,0.10,-0.11,0.39,0.01,0.03,0.01,
15:15:38:450,0.11,-0.13,0.49,0.01,0.03,0.01,
15:15:38:450,0.11,-0.13,0.49,0.02,0.02,0.00,
15:15:38:451,0.13,-0.15,0.39,0.02,0.02,0.00,
15:15:38:454,0.13,-0.15,0.39,0.03,0.02,-0.00,
15:15:38:455,0.09,-0.08,0.22,0.03,0.02,-0.00,
15:15:38:457,0.09,-0.08,0.22,0.04,0.02,-0.00,
15:15:38:457,-0.08,-0.02,0.11,0.04,0.02,-0.00,
15:15:38:463,-0.08,-0.02,0.11,0.04,0.03,0.01,
15:15:38:463,-0.22,0.07,0.06,0.04,0.03,0.01,
15:15:38:467,-0.22,0.07,0.06,0.05,0.03,0.02,
15:15:38:468,-0.18,0.13,-0.03,0.05,0.03,0.02,
15:15:38:472,-0.18,0.13,-0.03,0.05,0.04,0.03,
15:15:38:472,-0.03,0.13,0.04,0.05,0.04,0.03,
15:15:38:477,-0.03,0.13,0.04,0.06,0.07,0.03,
15:15:38:477,0.09,0.15,0.18,0.06,0.07,0.03,
15:15:38:481,0.09,0.15,0.18,0.07,0.09,0.03,
15:15:38:481,-0.03,-0.04,-0.11,0.07,0.09,0.03,
15:15:38:495,-0.13,-0.22,-0.17,0.07,0.09,0.03,
15:15:38:496,-0.13,-0.22,-0.17,0.07,0.11,0.04,
15:15:38:496,-0.13,-0.22,-0.17,0.06,0.11,0.06,
15:15:38:496,-0.22,-0.42,-0.44,0.06,0.11,0.06,
15:15:38:497,-0.22,-0.42,-0.44,0.05,0.12,0.08,
15:15:38:497,-0.05,-0.39,-0.11,0.05,0.12,0.08,
15:15:38:500,-0.05,-0.39,-0.11,0.07,0.16,0.09,
15:15:38:501,-0.03,-0.15,0.03,0.07,0.16,0.09,
15:15:38:506,-0.03,-0.15,0.03,0.08,0.19,0.10,
15:15:38:508,-0.07,0.03,0.01,0.08,0.19,0.10,
15:15:38:511,-0.03,0.24,0.12,0.08,0.19,0.10,
15:15:38:511,-0.03,0.24,0.12,0.09,0.20,0.11,
15:15:38:516,-0.03,0.24,0.12,0.11,0.21,0.11,
15:15:38:516,-0.04,0.49,0.11,0.11,0.21,0.11,
15:15:38:524,-0.04,0.49,0.11,0.11,0.22,0.11,
15:15:38:525,-0.87,0.56,-0.60,0.11,0.22,0.11,
15:15:38:525,-0.89,0.35,-0.16,0.11,0.22,0.11,
15:15:38:525,-0.89,0.35,-0.16,0.09,0.21,0.14,
15:15:38:530,-0.79,0.06,-0.38,0.09,0.21,0.14,
15:15:38:530,-0.79,0.06,-0.38,0.08,0.18,0.17,
15:15:38:536,-0.79,0.06,-0.38,0.05,0.15,0.19,
15:15:38:536,-0.64,-0.16,-0.41,0.05,0.15,0.19,
15:15:38:541,-0.64,-0.16,-0.41,0.03,0.12,0.20,
15:15:38:542,-0.13,-0.15,-0.02,0.03,0.12,0.20,
15:15:38:546,0.09,-0.04,-0.09,0.03,0.12,0.20,
15:15:38:547,0.09,-0.04,-0.09,0.02,0.10,0.20,
15:15:38:550,0.09,-0.04,-0.09,0.00,0.06,0.19,
15:15:38:551,0.12,0.06,-0.13,0.00,0.06,0.19,
15:15:38:555,0.12,0.06,-0.13,-0.02,0.03,0.18,
15:15:38:557,-0.05,0.17,-0.04,-0.02,0.03,0.18,
15:15:38:559,-0.05,0.17,-0.04,-0.03,-0.00,0.19,
15:15:38:560,-0.13,0.19,0.02,-0.03,-0.00,0.19,
15:15:38:564,-0.01,0.12,0.38,-0.03,-0.00,0.19,
15:15:38:565,-0.01,0.12,0.38,-0.03,-0.02,0.20,
15:15:38:570,0.02,0.09,0.52,-0.03,-0.02,0.20,
15:15:38:571,0.02,0.09,0.52,-0.02,-0.04,0.20,
15:15:38:574,-0.13,0.16,0.33,-0.02,-0.04,0.20,
15:15:38:575,-0.13,0.16,0.33,0.00,-0.03,0.20,
15:15:38:579,0.47,0.16,0.42,0.00,-0.03,0.20,
15:15:38:580,0.47,0.16,0.42,0.02,-0.02,0.21,
15:15:38:583,1.06,0.18,0.28,0.02,-0.02,0.21,
15:15:38:583,1.06,0.18,0.28,0.04,-0.01,0.19,
15:15:38:600,0.95,0.19,-0.14,0.04,-0.01,0.19,
15:15:38:601,0.95,0.19,-0.14,0.04,-0.02,0.14,
15:15:38:602,0.61,0.10,-0.28,0.04,-0.02,0.14,
15:15:38:603,0.61,0.10,-0.28,0.02,-0.04,0.12,
15:15:38:603,0.46,-0.04,-0.38,0.02,-0.04,0.12,
15:15:38:604,0.46,-0.04,-0.38,-0.01,-0.08,0.11,
15:15:38:617,0.46,-0.04,-0.38,-0.05,-0.13,0.10,
15:15:38:618,0.54,-0.28,-0.53,-0.05,-0.13,0.10,
15:15:38:619,0.54,-0.28,-0.53,-0.09,-0.18,0.07,
15:15:38:620,0.49,-0.46,-0.65,-0.09,-0.18,0.07,
15:15:38:620,0.49,-0.46,-0.65,-0.12,-0.21,0.04,
15:15:38:621,0.31,-0.45,-0.54,-0.12,-0.21,0.04,
15:15:38:622,0.84,-0.60,-0.16,-0.12,-0.21,0.04,
15:15:38:622,0.84,-0.60,-0.16,-0.14,-0.21,0.01,
15:15:38:645,1.28,-0.80,0.10,-0.14,-0.21,0.01,
15:15:38:646,1.28,-0.80,0.10,-0.14,-0.22,-0.04,
15:15:38:647,1.28,-0.80,0.10,-0.14,-0.27,-0.10,
15:15:38:647,1.28,-0.80,0.10,-0.13,-0.33,-0.19,
15:15:38:647,1.51,-0.87,0.31,-0.13,-0.33,-0.19,
15:15:38:648,1.90,-0.99,0.52,-0.13,-0.33,-0.19,
15:15:38:648,2.17,-1.03,0.73,-0.13,-0.33,-0.19,
15:15:38:648,2.17,-1.03,0.73,-0.13,-0.42,-0.29,
15:15:38:678,2.17,-1.03,0.73,-0.11,-0.47,-0.39,
15:15:38:678,2.07,-0.89,1.04,-0.11,-0.47,-0.39,
15:15:38:679,2.07,-0.89,1.04,-0.07,-0.47,-0.49,
15:15:38:679,1.59,-0.59,1.07,-0.07,-0.47,-0.49,
15:15:38:679,0.78,-0.26,1.20,-0.07,-0.47,-0.49,
15:15:38:680,0.78,-0.26,1.20,-0.02,-0.42,-0.56,
15:15:38:680,0.78,-0.26,1.20,0.06,-0.35,-0.57,
15:15:38:680,-0.01,0.02,1.32,0.06,-0.35,-0.57,
15:15:38:681,-0.01,0.02,1.32,0.14,-0.26,-0.52,
15:15:38:681,-0.63,0.17,1.09,0.14,-0.26,-0.52,
15:15:38:681,-0.63,0.17,1.09,0.22,-0.14,-0.44,
15:15:38:682,-1.07,0.20,0.76,0.22,-0.14,-0.44,
15:15:38:682,-1.07,0.20,0.76,0.29,-0.03,-0.36,
15:15:38:682,-1.45,0.30,0.36,0.29,-0.03,-0.36,
15:15:38:682,-1.45,0.30,0.36,0.33,0.03,-0.28,
15:15:38:683,-1.83,0.33,-0.03,0.33,0.03,-0.28,
15:15:38:683,-2.15,0.43,-0.45,0.33,0.03,-0.28,
15:15:38:683,-2.15,0.43,-0.45,0.36,0.07,-0.19,
15:15:38:685,-2.15,0.43,-0.45,0.37,0.10,-0.10,
15:15:38:686,-2.44,0.56,-0.70,0.37,0.10,-0.10,
15:15:38:690,-2.44,0.56,-0.70,0.35,0.10,0.00,
15:15:38:691,-2.37,0.60,-0.85,0.35,0.10,0.00,
15:15:38:696,-1.81,0.43,-0.76,0.35,0.10,0.00,
15:15:38:696,-1.81,0.43,-0.76,0.31,0.04,0.10,
15:15:38:700,-1.81,0.43,-0.76,0.25,-0.06,0.17,
15:15:38:701,-0.86,0.12,-0.56,0.25,-0.06,0.17,
15:15:38:711,-0.86,0.12,-0.56,0.20,-0.16,0.19,
15:15:38:712,0.21,-0.19,-0.43,0.20,-0.16,0.19,
15:15:38:712,0.21,-0.19,-0.43,0.16,-0.23,0.15,
15:15:38:712,1.12,-0.44,-0.36,0.16,-0.23,0.15,
15:15:38:716,1.57,-0.53,-0.31,0.16,-0.23,0.15,
15:15:38:716,1.57,-0.53,-0.31,0.14,-0.25,0.06,
15:15:38:720,1.42,-0.41,-0.34,0.14,-0.25,0.06,
15:15:38:721,1.42,-0.41,-0.34,0.13,-0.23,-0.04,
15:15:38:741,0.67,-0.06,-0.62,0.13,-0.23,-0.04,
15:15:38:742,0.67,-0.06,-0.62,0.13,-0.18,-0.13,
15:15:38:742,0.01,0.17,-1.02,0.13,-0.18,-0.13,
15:15:38:743,0.01,0.17,-1.02,0.13,-0.10,-0.18,
15:15:38:743,-0.35,0.33,-1.05,0.13,-0.10,-0.18,
15:15:38:744,-0.35,0.33,-1.05,0.12,0.00,-0.18,
15:15:38:744,-0.35,0.33,-1.05,0.12,0.10,-0.15,
15:15:38:745,-0.32,0.32,-0.80,0.12,0.10,-0.15,
15:15:38:745,-0.32,0.32,-0.80,0.12,0.17,-0.12,
15:15:38:745,-0.14,0.17,-0.38,0.12,0.17,-0.12,
15:15:38:748,-0.14,0.17,-0.38,0.14,0.23,-0.11,
15:15:38:749,0.01,0.00,0.07,0.14,0.23,-0.11,
15:15:38:755,-0.03,-0.09,0.32,0.14,0.23,-0.11,
15:15:38:755,-0.03,-0.09,0.32,0.17,0.27,-0.10,
15:15:38:758,-0.32,-0.11,0.50,0.17,0.27,-0.10,
15:15:38:759,-0.32,-0.11,0.50,0.19,0.28,-0.09,
15:15:38:764,-0.32,-0.11,0.50,0.21,0.27,-0.07,
15:15:38:764,-0.79,-0.19,0.68,0.21,0.27,-0.07,
15:15:38:769,-0.79,-0.19,0.68,0.23,0.22,-0.04,
15:15:38:769,-1.31,-0.12,0.80,0.23,0.22,-0.04,
15:15:38:773,-1.59,-0.01,0.77,0.23,0.22,-0.04,
15:15:38:773,-1.59,-0.01,0.77,0.25,0.12,0.01,
15:15:38:779,-1.59,-0.01,0.77,0.26,0.01,0.09,
15:15:38:780,-1.76,0.16,0.73,0.26,0.01,0.09,
15:15:38:782,-1.76,0.16,0.73,0.26,-0.10,0.18,
15:15:38:782,-1.51,0.21,0.46,0.26,-0.10,0.18,
15:15:38:788,-1.51,0.21,0.46,0.25,-0.19,0.27,
15:15:38:788,-1.28,0.20,-0.35,0.25,-0.19,0.27,
15:15:38:793,-1.28,0.20,-0.35,0.20,-0.21,0.34,
15:15:38:793,-1.88,0.32,-2.05,0.20,-0.21,0.34,
15:15:38:797,-1.88,0.32,-2.05,0.11,-0.14,0.43,
15:15:38:798,-1.48,0.47,-1.82,0.11,-0.14,0.43,
15:15:38:802,-1.48,0.47,-1.82,0.07,-0.03,0.49,
15:15:38:802,0.27,0.62,0.15,0.07,-0.03,0.49,
15:15:38:808,0.27,0.62,0.15,0.11,0.07,0.47,
15:15:38:808,0.89,0.42,0.13,0.11,0.07,0.47,
15:15:38:812,0.89,0.42,0.13,0.13,0.14,0.44,
15:15:38:812,1.05,0.12,-0.62,0.13,0.14,0.44,
15:15:38:816,1.05,0.12,-0.62,0.11,0.21,0.40,
15:15:38:817,1.06,-0.21,-0.77,0.11,0.21,0.40,
15:15:38:824,1.06,-0.21,-0.77,0.07,0.28,0.36,
15:15:38:826,0.93,-0.36,-0.90,0.07,0.28,0.36,
15:15:38:827,0.93,-0.36,-0.90,0.04,0.34,0.30,
15:15:38:828,0.77,-0.32,-0.98,0.04,0.34,0.30,
15:15:38:835,0.77,-0.32,-0.98,0.01,0.44,0.25,
15:15:38:852,0.55,-0.19,-1.00,0.01,0.44,0.25,
15:15:38:853,0.55,-0.19,-1.00,-0.01,0.52,0.21,
15:15:38:854,0.58,-0.10,-0.74,-0.01,0.52,0.21,
15:15:38:854,0.58,-0.10,-0.74,-0.03,0.57,0.17,
15:15:38:854,0.64,-0.13,-0.39,-0.03,0.57,0.17,
15:15:38:854,0.64,-0.13,-0.39,-0.05,0.56,0.13,
15:15:38:854,0.57,-0.08,-0.05,-0.05,0.56,0.13,
15:15:38:855,0.57,-0.08,-0.05,-0.08,0.50,0.10,
15:15:38:855,0.50,-0.08,0.00,-0.08,0.50,0.10,
15:15:38:857,0.63,-0.04,0.11,-0.08,0.50,0.10,
15:15:38:858,0.63,-0.04,0.11,-0.11,0.42,0.07,
15:15:38:861,0.63,-0.04,0.11,-0.13,0.33,0.03,
15:15:38:862,0.60,0.20,0.35,-0.13,0.33,0.03,
15:15:38:866,0.60,0.20,0.35,-0.13,0.28,-0.01,
15:15:38:867,0.43,0.16,0.46,-0.13,0.28,-0.01,
15:15:38:871,0.43,0.16,0.46,-0.12,0.25,-0.03,
15:15:38:872,0.26,-0.03,0.53,-0.12,0.25,-0.03,
15:15:38:875,0.26,-0.03,0.53,-0.10,0.24,-0.02,
15:15:38:876,-0.00,-0.02,0.74,-0.10,0.24,-0.02,
15:15:38:880,-0.00,-0.02,0.74,-0.07,0.22,-0.00,
15:15:38:881,-0.22,-0.06,0.69,-0.07,0.22,-0.00,
15:15:38:905,-0.22,-0.06,0.69,-0.05,0.20,0.03,
15:15:38:906,-0.21,-0.17,0.52,-0.05,0.20,0.03,
15:15:38:906,-0.36,-0.01,0.31,-0.05,0.20,0.03,
15:15:38:906,-0.36,-0.01,0.31,-0.03,0.17,0.06,
15:15:38:907,-0.36,-0.01,0.31,-0.03,0.15,0.10,
15:15:38:907,-0.46,0.22,0.35,-0.03,0.15,0.10,
15:15:38:907,-0.46,0.22,0.35,-0.03,0.12,0.15,
15:15:38:908,-0.49,0.46,0.23,-0.03,0.12,0.15,
15:15:38:908,-0.49,0.46,0.23,-0.03,0.09,0.20,
15:15:38:908,-0.27,0.65,-0.06,-0.03,0.09,0.20,
15:15:38:908,-0.27,0.65,-0.06,-0.05,0.05,0.23,
15:15:38:910,1.08,0.76,-0.37,-0.05,0.05,0.23,
15:15:38:914,1.22,0.62,-0.53,-0.05,0.05,0.23,
15:15:38:914,1.22,0.62,-0.53,-0.10,-0.02,0.19,
15:15:38:919,1.22,0.62,-0.53,-0.15,-0.06,0.14,
15:15:38:920,1.39,-0.18,-1.50,-0.15,-0.06,0.14,
15:15:38:924,1.39,-0.67,-1.22,-0.15,-0.06,0.14,
15:15:38:925,1.39,-0.67,-1.22,-0.20,0.01,0.07,
15:15:38:929,1.36,-0.68,-0.47,-0.20,0.01,0.07,
15:15:38:930,1.36,-0.68,-0.47,-0.22,0.10,0.00,
15:15:38:934,1.36,-0.68,-0.47,-0.22,0.16,-0.07,
15:15:38:934,1.33,-0.83,0.02,-0.22,0.16,-0.07,
15:15:38:941,1.01,-0.77,0.20,-0.22,0.16,-0.07,
15:15:38:942,1.01,-0.77,0.20,-0.22,0.16,-0.14,
15:15:38:943,0.57,-0.53,0.18,-0.22,0.16,-0.14,
15:15:38:944,0.57,-0.53,0.18,-0.25,0.12,-0.21,
15:15:38:949,0.04,-0.20,0.23,-0.25,0.12,-0.21,
15:15:38:950,0.04,-0.20,0.23,-0.30,0.04,-0.25,
15:15:38:975,0.04,-0.20,0.23,-0.34,-0.06,-0.25,
15:15:38:976,-0.40,0.13,0.35,-0.34,-0.06,-0.25,
15:15:38:976,-0.80,0.37,0.50,-0.34,-0.06,-0.25,
15:15:38:977,-0.80,0.37,0.50,-0.38,-0.18,-0.22,
15:15:38:977,-0.80,0.37,0.50,-0.41,-0.30,-0.17,
15:15:38:977,-1.05,0.55,0.60,-0.41,-0.30,-0.17,
15:15:38:978,-1.05,0.55,0.60,-0.42,-0.42,-0.10,
15:15:38:978,-1.13,0.60,0.57,-0.42,-0.42,-0.10,
15:15:38:978,-1.33,0.72,0.70,-0.42,-0.42,-0.10,
15:15:38:978,-1.33,0.72,0.70,-0.43,-0.53,-0.03,
15:15:38:979,-1.62,0.82,0.76,-0.43,-0.53,-0.03,
15:15:38:979,-1.62,0.82,0.76,-0.43,-0.63,0.05,
15:15:38:982,-1.62,0.82,0.76,-0.43,-0.71,0.12,
15:15:38:982,-1.93,0.87,0.51,-0.43,-0.71,0.12,
15:15:38:987,-1.93,0.87,0.51,-0.42,-0.74,0.21,
15:15:38:988,-2.07,0.95,0.21,-0.42,-0.74,0.21,
15:15:38:992,-1.86,0.84,-0.02,-0.42,-0.74,0.21,
15:15:38:992,-1.86,0.84,-0.02,-0.40,-0.71,0.30,
15:15:38:996,-1.48,0.62,0.11,-0.40,-0.71,0.30,
15:15:38:997,-1.48,0.62,0.11,-0.38,-0.64,0.38,
15:15:39:001,-0.88,0.28,0.49,-0.38,-0.64,0.38,
15:15:39:001,-0.88,0.28,0.49,-0.34,-0.56,0.45,
15:15:39:007,-0.40,-0.02,0.98,-0.34,-0.56,0.45,
15:15:39:009,-0.40,-0.02,0.98,-0.29,-0.48,0.48,
15:15:39:011,-0.40,-0.02,0.98,-0.22,-0.41,0.50,
15:15:39:011,-0.15,-0.21,1.36,-0.22,-0.41,0.50,
15:15:39:015,-0.15,-0.21,1.36,-0.13,-0.36,0.50,
15:15:39:016,-0.13,-0.32,1.41,-0.13,-0.36,0.50,
15:15:39:021,-0.26,-0.38,1.49,-0.13,-0.36,0.50,
15:15:39:024,-0.26,-0.38,1.49,-0.05,-0.32,0.50,
15:15:39:026,-0.26,-0.38,1.49,0.03,-0.28,0.50,
15:15:39:027,0.22,-0.68,1.54,0.03,-0.28,0.50,
15:15:39:030,0.22,-0.68,1.54,0.12,-0.26,0.48,
15:15:39:031,0.64,-0.91,2.03,0.12,-0.26,0.48,
15:15:39:035,0.64,-0.91,2.03,0.22,-0.26,0.44,
15:15:39:037,0.42,-0.78,2.80,0.22,-0.26,0.44,
15:15:39:040,0.42,-0.78,2.80,0.36,-0.27,0.41,
15:15:39:041,0.14,-0.68,2.59,0.36,-0.27,0.41,
15:15:39:046,-0.06,-0.49,1.57,0.36,-0.27,0.41,
15:15:39:047,-0.06,-0.49,1.57,0.48,-0.28,0.40,
15:15:39:049,-0.06,-0.49,1.57,0.55,-0.33,0.41,
15:15:39:050,-0.01,-0.22,0.42,0.55,-0.33,0.41,
15:15:39:060,-0.01,-0.22,0.42,0.55,-0.41,0.41,
15:15:39:061,0.15,0.05,-0.39,0.55,-0.41,0.41,
15:15:39:061,0.27,0.31,-0.80,0.55,-0.41,0.41,
15:15:39:062,0.27,0.31,-0.80,0.51,-0.53,0.42,
15:15:39:069,0.27,0.31,-0.80,0.43,-0.66,0.43,
15:15:39:070,0.45,0.50,-1.08,0.43,-0.66,0.43,
15:15:39:071,0.61,0.55,-1.44,0.43,-0.66,0.43,
15:15:39:071,0.61,0.55,-1.44,0.35,-0.79,0.43,
15:15:39:084,0.61,0.55,-1.44,0.25,-0.86,0.42,
15:15:39:085,0.94,0.45,-1.56,0.25,-0.86,0.42,
15:15:39:086,0.94,0.45,-1.56,0.16,-0.92,0.39,
15:15:39:087,1.17,0.47,-1.40,0.16,-0.92,0.39,
15:15:39:087,1.17,0.47,-1.40,0.07,-0.98,0.36,
15:15:39:088,1.32,0.50,-1.47,0.07,-0.98,0.36,
15:15:39:096,1.32,0.50,-1.47,-0.01,-1.00,0.32,
15:15:39:097,1.48,0.44,-1.86,-0.01,-1.00,0.32,
15:15:39:098,1.43,0.43,-1.77,-0.01,-1.00,0.32,
15:15:39:098,1.43,0.43,-1.77,-0.09,-0.97,0.27,
15:15:39:102,1.43,0.43,-1.77,-0.15,-0.93,0.22,
15:15:39:102,1.22,0.41,-1.65,-0.15,-0.93,0.22,
15:15:39:106,0.78,0.48,-1.65,-0.15,-0.93,0.22,
15:15:39:107,0.78,0.48,-1.65,-0.20,-0.88,0.19,
15:15:39:108,0.78,0.48,-1.65,-0.24,-0.83,0.17,
15:15:39:108,0.52,0.43,-1.64,-0.24,-0.83,0.17,
15:15:39:113,0.52,0.43,-1.64,-0.28,-0.79,0.15,
15:15:39:114,0.74,0.12,-1.84,-0.28,-0.79,0.15,
15:15:39:118,0.74,0.12,-1.84,-0.32,-0.74,0.12,
15:15:39:119,1.04,-0.19,-1.64,-0.32,-0.74,0.12,
15:15:39:122,1.04,-0.19,-1.64,-0.36,-0.71,0.09,
15:15:39:123,1.07,-0.35,-1.22,-0.36,-0.71,0.09,
15:15:39:142,1.07,-0.35,-1.22,-0.37,-0.68,0.04,
15:15:39:142,0.95,-0.45,-0.82,-0.37,-0.68,0.04,
15:15:39:142,0.95,-0.45,-0.82,-0.37,-0.64,0.00,
15:15:39:143,0.94,-0.51,-0.57,-0.37,-0.64,0.00,
15:15:39:143,0.94,-0.51,-0.57,-0.34,-0.59,-0.04,
15:15:39:143,0.93,-0.65,-0.44,-0.34,-0.59,-0.04,
15:15:39:144,0.91,-0.75,-0.62,-0.34,-0.59,-0.04,
15:15:39:144,0.91,-0.75,-0.62,-0.29,-0.52,-0.07,
15:15:39:146,0.83,-0.75,-1.11,-0.29,-0.52,-0.07,
15:15:39:147,0.83,-0.75,-1.11,-0.25,-0.44,-0.09,
15:15:39:155,0.83,-0.75,-1.11,-0.22,-0.35,-0.11,
15:15:39:156,0.44,-0.45,-1.18,-0.22,-0.35,-0.11,
15:15:39:157,0.44,-0.45,-1.18,-0.19,-0.27,-0.12,
15:15:39:158,-0.12,-0.01,-1.19,-0.19,-0.27,-0.12,
15:15:39:161,-0.12,-0.01,-1.19,-0.17,-0.22,-0.09,
15:15:39:162,-0.57,0.36,-1.40,-0.17,-0.22,-0.09,
15:15:39:166,-0.97,0.58,-1.41,-0.17,-0.22,-0.09,
15:15:39:166,-0.97,0.58,-1.41,-0.17,-0.21,-0.03,
15:15:39:171,-1.38,0.55,-1.29,-0.17,-0.21,-0.03,
15:15:39:172,-1.38,0.55,-1.29,-0.19,-0.21,0.04,
15:15:39:175,-1.38,0.55,-1.29,-0.22,-0.22,0.12,
15:15:39:176,-1.55,0.29,-1.22,-0.22,-0.22,0.12,
15:15:39:180,-1.55,0.29,-1.22,-0.26,-0.22,0.21,
15:15:39:181,-1.68,0.37,-0.70,-0.26,-0.22,0.21,
15:15:39:185,-1.68,0.37,-0.70,-0.32,-0.27,0.30,
15:15:39:185,-1.22,0.12,-0.67,-0.32,-0.27,0.30,
15:15:39:190,-0.40,-0.20,0.18,-0.32,-0.27,0.30,
15:15:39:191,-0.40,-0.20,0.18,-0.39,-0.37,0.35,
15:15:39:194,0.68,-0.70,1.35,-0.39,-0.37,0.35,
15:15:39:195,0.68,-0.70,1.35,-0.42,-0.52,0.36,
15:15:39:201,0.68,-0.70,1.35,-0.41,-0.69,0.30,
15:15:39:202,1.90,-1.14,1.85,-0.41,-0.69,0.30,
15:15:39:206,1.90,-1.14,1.85,-0.36,-0.83,0.19,
15:15:39:207,2.43,-1.22,1.78,-0.36,-0.83,0.19,
15:15:39:210,2.45,-1.30,1.11,-0.36,-0.83,0.19,
15:15:39:210,2.45,-1.30,1.11,-0.28,-0.86,0.07,
15:15:39:215,2.45,-1.22,0.43,-0.28,-0.86,0.07,
15:15:39:216,2.45,-1.22,0.43,-0.18,-0.76,-0.04,
15:15:39:220,2.45,-1.22,0.43,-0.07,-0.56,-0.14,
15:15:39:221,2.22,-0.96,0.21,-0.07,-0.56,-0.14,
15:15:39:225,2.22,-0.96,0.21,0.05,-0.31,-0.22,
15:15:39:226,1.98,-0.66,0.20,0.05,-0.31,-0.22,
15:15:39:229,1.98,-0.66,0.20,0.16,-0.09,-0.26,
15:15:39:229,1.69,-0.39,0.47,0.16,-0.09,-0.26,
15:15:39:234,1.69,-0.39,0.47,0.26,0.07,-0.28,
15:15:39:234,1.39,-0.24,0.63,0.26,0.07,-0.28,
15:15:39:240,1.39,-0.24,0.63,0.34,0.13,-0.28,
15:15:39:241,0.87,-0.12,0.45,0.34,0.13,-0.28,
15:15:39:243,0.87,-0.12,0.45,0.38,0.15,-0.26,
15:15:39:244,0.31,-0.10,0.16,0.38,0.15,-0.26,
15:15:39:249,0.31,-0.10,0.16,0.39,0.10,-0.24,
15:15:39:249,-0.27,-0.10,-0.16,0.39,0.10,-0.24,
15:15:39:262,-0.27,-0.10,-0.16,0.37,0.02,-0.20,
15:15:39:263,-1.05,0.08,-0.46,0.37,0.02,-0.20,
15:15:39:264,-1.05,0.08,-0.46,0.32,-0.11,-0.15,
15:15:39:264,-1.82,0.31,-0.53,0.32,-0.11,-0.15,
15:15:39:270,-1.82,0.31,-0.53,0.26,-0.27,-0.10,
15:15:39:271,-1.82,0.31,-0.53,0.19,-0.49,-0.08,
15:15:39:274,-1.25,0.16,-0.50,0.19,-0.49,-0.08,
15:15:39:274,-0.64,-0.24,-0.55,0.19,-0.49,-0.08,
15:15:39:275,-0.53,-0.57,-0.86,0.19,-0.49,-0.08,
15:15:39:276,-0.53,-0.57,-0.86,0.09,-0.80,-0.09,
15:15:39:285,-0.53,-0.57,-0.86,-0.02,-1.11,-0.09,
15:15:39:288,-0.35,-0.55,-0.87,-0.02,-1.11,-0.09,
15:15:39:288,-0.35,-0.55,-0.87,-0.11,-1.31,-0.09,
15:15:39:289,0.10,-0.41,-1.09,-0.11,-1.31,-0.09,
15:15:39:289,0.10,-0.41,-1.09,-0.18,-1.43,-0.10,
15:15:39:289,0.91,-0.41,-1.50,-0.18,-1.43,-0.10,
15:15:39:293,1.89,-0.68,-2.03,-0.18,-1.43,-0.10,
15:15:39:294,1.89,-0.68,-2.03,-0.23,-1.46,-0.14,
15:15:39:298,1.89,-0.68,-2.03,-0.27,-1.40,-0.22,
15:15:39:299,2.68,-0.84,-2.21,-0.27,-1.40,-0.22,
15:15:39:303,2.68,-0.84,-2.21,-0.29,-1.26,-0.32,
15:15:39:303,3.12,-0.88,-2.14,-0.29,-1.26,-0.32,
15:15:39:308,3.12,-0.88,-2.14,-0.31,-1.09,-0.43,
15:15:39:312,2.97,-0.70,-1.79,-0.31,-1.09,-0.43,
15:15:39:313,2.72,-0.39,-1.23,-0.31,-1.09,-0.43,
15:15:39:314,2.72,-0.39,-1.23,-0.30,-0.90,-0.52,
15:15:39:317,2.72,-0.39,-1.23,-0.28,-0.73,-0.59,
15:15:39:318,2.66,-0.35,-0.95,-0.28,-0.73,-0.59,
15:15:39:324,2.71,-0.68,-0.56,-0.28,-0.73,-0.59,
15:15:39:325,2.71,-0.68,-0.56,-0.26,-0.62,-0.65,
15:15:39:327,2.22,-1.12,-0.26,-0.26,-0.62,-0.65,
15:15:39:328,2.22,-1.12,-0.26,-0.24,-0.53,-0.71,
15:15:39:332,1.35,-1.40,-0.11,-0.24,-0.53,-0.71,
15:15:39:333,1.35,-1.40,-0.11,-0.22,-0.47,-0.76,
15:15:39:337,0.07,-1.35,-0.26,-0.22,-0.47,-0.76,
15:15:39:338,0.07,-1.35,-0.26,-0.20,-0.46,-0.78,
15:15:39:342,-0.56,-1.15,-0.24,-0.20,-0.46,-0.78,
15:15:39:343,-0.56,-1.15,-0.24,-0.18,-0.48,-0.76,
15:15:39:346,-1.20,-0.86,-0.29,-0.18,-0.48,-0.76,
15:15:39:346,-1.20,-0.86,-0.29,-0.16,-0.54,-0.73,
15:15:39:351,-1.20,-0.86,-0.29,-0.13,-0.63,-0.67,
15:15:39:351,-1.53,-0.59,-0.27,-0.13,-0.63,-0.67,
15:15:39:357,-1.53,-0.59,-0.27,-0.10,-0.77,-0.59,
15:15:39:358,-1.65,-0.32,-0.39,-0.10,-0.77,-0.59,
15:15:39:360,-1.70,-0.06,-0.79,-0.10,-0.77,-0.59,
15:15:39:361,-1.70,-0.06,-0.79,-0.09,-0.92,-0.50,
15:15:39:365,-1.46,0.16,-1.36,-0.09,-0.92,-0.50,
15:15:39:366,-1.46,0.16,-1.36,-0.11,-1.07,-0.41,
15:15:39:404,-1.46,0.16,-1.36,-0.15,-1.19,-0.33,
15:15:39:404,-0.85,0.28,-2.05,-0.15,-1.19,-0.33,
15:15:39:405,-0.19,0.39,-2.76,-0.15,-1.19,-0.33,
15:15:39:405,-0.19,0.39,-2.76,-0.25,-1.25,-0.29,
15:15:39:405,-0.19,0.39,-2.76,-0.38,-1.26,-0.29,
15:15:39:406,0.33,0.51,-3.43,-0.38,-1.26,-0.29,
15:15:39:406,0.60,0.57,-4.02,-0.38,-1.26,-0.29,
15:15:39:407,0.60,0.57,-4.02,-0.56,-1.19,-0.30,
15:15:39:407,0.60,0.57,-4.02,-0.77,-1.07,-0.32,
15:15:39:407,0.66,0.48,-4.33,-0.77,-1.07,-0.32,
15:15:39:409,0.66,0.48,-4.33,-0.98,-0.90,-0.33,
15:15:39:409,0.56,0.36,-4.04,-0.98,-0.90,-0.33,
15:15:39:409,0.56,0.36,-4.04,-1.17,-0.69,-0.33,
15:15:39:410,0.39,0.14,-3.34,-1.17,-0.69,-0.33,
15:15:39:411,0.39,0.14,-3.34,-1.31,-0.47,-0.33,
15:15:39:411,0.52,-0.24,-2.23,-1.31,-0.47,-0.33,
15:15:39:411,0.81,-0.66,-0.94,-1.31,-0.47,-0.33,
15:15:39:412,0.81,-0.66,-0.94,-1.38,-0.30,-0.35,
15:15:39:419,0.95,-0.89,0.19,-1.38,-0.30,-0.35,
15:15:39:420,0.95,-0.89,0.19,-1.39,-0.18,-0.38,
15:15:39:421,0.96,-0.99,1.13,-1.39,-0.18,-0.38,
15:15:39:422,0.96,-0.99,1.13,-1.33,-0.12,-0.44,
15:15:39:428,0.86,-1.07,1.80,-1.33,-0.12,-0.44,
15:15:39:428,0.51,-1.17,2.10,-1.33,-0.12,-0.44,
15:15:39:429,0.51,-1.17,2.10,-1.23,-0.11,-0.50,
15:15:39:429,0.51,-1.17,2.10,-1.11,-0.13,-0.56,
15:15:39:437,-0.20,-1.19,2.14,-1.11,-0.13,-0.56,
15:15:39:438,-0.20,-1.19,2.14,-0.98,-0.17,-0.62,
15:15:39:439,-1.09,-1.19,1.84,-0.98,-0.17,-0.62,
15:15:39:439,-1.09,-1.19,1.84,-0.87,-0.22,-0.64,
15:15:39:444,-1.87,-0.93,1.45,-0.87,-0.22,-0.64,
15:15:39:444,-1.87,-0.93,1.45,-0.77,-0.28,-0.63,
15:15:39:448,-2.54,-0.45,1.10,-0.77,-0.28,-0.63,
15:15:39:449,-2.54,-0.45,1.10,-0.70,-0.37,-0.59,
15:15:39:452,-2.77,-0.12,0.69,-0.70,-0.37,-0.59,
15:15:39:453,-2.77,-0.12,0.69,-0.66,-0.46,-0.51,
15:15:39:458,-2.77,-0.12,0.69,-0.67,-0.58,-0.41,
15:15:39:459,-2.55,0.16,0.39,-0.67,-0.58,-0.41,
15:15:39:462,-2.04,0.36,-0.05,-0.67,-0.58,-0.41,
15:15:39:462,-2.04,0.36,-0.05,-0.71,-0.71,-0.32,
15:15:39:468,-2.04,0.36,-0.05,-0.78,-0.81,-0.25,
15:15:39:468,-1.52,0.39,-0.72,-0.78,-0.81,-0.25,
15:15:39:473,-1.52,0.39,-0.72,-0.88,-0.86,-0.22,
15:15:39:473,-0.81,0.27,-1.39,-0.88,-0.86,-0.22,
15:15:39:477,-0.81,0.27,-1.39,-0.98,-0.82,-0.22,
15:15:39:478,-0.03,0.07,-1.74,-0.98,-0.82,-0.22,
15:15:39:483,-0.03,0.07,-1.74,-1.07,-0.71,-0.27,
15:15:39:483,0.69,-0.05,-1.63,-1.07,-0.71,-0.27,
15:15:39:491,1.21,-0.05,-1.13,-1.07,-0.71,-0.27,
15:15:39:491,1.21,-0.05,-1.13,-1.13,-0.58,-0.36,
15:15:39:492,1.21,-0.05,-1.13,-1.17,-0.45,-0.45,
15:15:39:492,1.32,-0.06,-0.85,-1.17,-0.45,-0.45,
15:15:39:500,1.32,-0.06,-0.85,-1.19,-0.34,-0.53,
15:15:39:501,1.29,-0.13,-0.62,-1.19,-0.34,-0.53,
15:15:39:502,1.29,-0.13,-0.62,-1.20,-0.22,-0.60,
15:15:39:502,1.22,-0.16,-0.44,-1.20,-0.22,-0.60,
15:15:39:527,1.57,0.22,-0.38,-1.20,-0.22,-0.60,
15:15:39:528,1.57,0.22,-0.38,-1.20,-0.06,-0.66,
15:15:39:529,1.12,0.07,-0.23,-1.20,-0.06,-0.66,
15:15:39:529,1.12,0.07,-0.23,-1.19,0.16,-0.73,
15:15:39:529,1.12,0.07,-0.23,-1.16,0.37,-0.77,
15:15:39:530,0.79,-0.09,0.13,-1.16,0.37,-0.77,
15:15:39:530,0.79,-0.09,0.13,-1.12,0.57,-0.79,
15:15:39:530,0.31,-0.06,0.43,-1.12,0.57,-0.79,
15:15:39:531,0.31,-0.06,0.43,-1.06,0.73,-0.77,
15:15:39:531,-0.16,0.06,0.65,-1.06,0.73,-0.77,
15:15:39:531,-0.16,0.06,0.65,-1.01,0.84,-0.73,
15:15:39:532,-0.58,0.18,0.92,-1.01,0.84,-0.73,
15:15:39:536,-0.58,0.18,0.92,-0.95,0.90,-0.67,
15:15:39:537,-0.94,0.31,1.02,-0.95,0.90,-0.67,
15:15:39:543,-1.29,0.51,0.93,-0.95,0.90,-0.67,
15:15:39:545,-1.29,0.51,0.93,-0.91,0.91,-0.60,
15:15:39:545,-1.29,0.51,0.93,-0.89,0.89,-0.51,
15:15:39:545,-1.51,0.64,0.90,-0.89,0.89,-0.51,
15:15:39:550,-1.51,0.64,0.90,-0.87,0.85,-0.42,
15:15:39:550,-1.80,0.74,0.82,-0.87,0.85,-0.42,
15:15:39:559,-1.80,0.74,0.82,-0.86,0.80,-0.33,
15:15:39:560,-1.80,0.74,0.82,-0.86,0.73,-0.27,
15:15:39:561,-1.42,0.69,0.83,-0.86,0.73,-0.27,
15:15:39:561,-1.68,0.87,0.84,-0.86,0.73,-0.27,
15:15:39:564,-1.68,0.87,0.84,-0.87,0.63,-0.21,
15:15:39:564,-1.72,0.97,0.78,-0.87,0.63,-0.21,
15:15:39:571,-1.72,0.97,0.78,-0.89,0.51,-0.15,
15:15:39:572,-1.63,0.91,0.56,-0.89,0.51,-0.15,
15:15:39:584,-1.63,0.91,0.56,-0.91,0.39,-0.10,
15:15:39:584,-1.63,0.91,0.56,-0.93,0.29,-0.07,
15:15:39:584,-1.42,0.83,0.43,-0.93,0.29,-0.07,
15:15:39:585,-1.20,0.69,0.43,-0.93,0.29,-0.07,
15:15:39:590,-0.97,0.56,0.48,-0.93,0.29,-0.07,
15:15:39:591,-0.97,0.56,0.48,-0.94,0.19,-0.05,
15:15:39:592,-0.97,0.56,0.48,-0.95,0.10,-0.04,
15:15:39:593,-0.39,0.53,0.73,-0.95,0.10,-0.04,
15:15:39:594,-0.39,0.53,0.73,-0.94,0.06,-0.04,
15:15:39:594,0.17,0.46,0.79,-0.94,0.06,-0.04,
15:15:39:599,0.17,0.46,0.79,-0.93,0.06,-0.06,
15:15:39:600,0.81,0.43,0.98,-0.93,0.06,-0.06,
15:15:39:603,0.81,0.43,0.98,-0.89,0.11,-0.10,
15:15:39:604,1.12,0.34,1.02,-0.89,0.11,-0.10,
15:15:39:610,1.06,0.24,1.00,-0.89,0.11,-0.10,
15:15:39:611,1.06,0.24,1.00,-0.84,0.22,-0.14,
15:15:39:643,1.06,0.24,1.00,-0.77,0.37,-0.18,
15:15:39:643,0.95,0.17,1.08,-0.77,0.37,-0.18,
15:15:39:644,0.74,0.22,1.17,-0.77,0.37,-0.18,
15:15:39:644,0.45,0.34,1.18,-0.77,0.37,-0.18,
15:15:39:644,0.45,0.34,1.18,-0.68,0.55,-0.19,
15:15:39:644,0.45,0.34,1.18,-0.60,0.72,-0.19,
15:15:39:645,0.22,0.51,1.19,-0.60,0.72,-0.19,
15:15:39:645,0.22,0.51,1.19,-0.51,0.87,-0.17,
15:15:39:645,0.24,0.64,1.08,-0.51,0.87,-0.17,
15:15:39:645,0.24,0.64,1.08,-0.43,1.00,-0.14,
15:15:39:646,0.24,0.64,1.08,-0.35,1.12,-0.12,
15:15:39:646,-0.12,0.64,0.89,-0.35,1.12,-0.12,
15:15:39:646,-0.78,0.85,0.99,-0.35,1.12,-0.12,
15:15:39:647,-0.78,0.85,0.99,-0.30,1.15,-0.09,
15:15:39:647,-0.78,0.85,0.99,-0.26,1.10,-0.04,
15:15:39:647,-1.16,1.04,0.82,-0.26,1.10,-0.04,
15:15:39:651,-1.30,1.37,0.50,-0.26,1.10,-0.04,
15:15:39:652,-1.30,1.37,0.50,-0.23,1.01,0.03,
15:15:39:656,-1.32,1.54,0.05,-0.23,1.01,0.03,
15:15:39:657,-1.32,1.54,0.05,-0.22,0.91,0.10,
15:15:39:661,-1.26,1.62,-0.23,-0.22,0.91,0.10,
15:15:39:661,-1.26,1.62,-0.23,-0.23,0.78,0.17,
15:15:39:666,-1.26,1.62,-0.23,-0.27,0.65,0.22,
15:15:39:666,-0.93,1.67,-0.44,-0.27,0.65,0.22,
15:15:39:672,-0.93,1.67,-0.44,-0.31,0.51,0.26,
15:15:39:673,-0.40,1.78,-0.47,-0.31,0.51,0.26,
15:15:39:677,0.27,1.82,-0.56,-0.31,0.51,0.26,
15:15:39:677,0.27,1.82,-0.56,-0.35,0.37,0.27,
15:15:39:681,0.94,1.65,-0.65,-0.35,0.37,0.27,
15:15:39:681,0.94,1.65,-0.65,-0.39,0.25,0.26,
15:15:39:689,0.94,1.65,-0.65,-0.42,0.18,0.23,
15:15:39:689,1.40,1.40,-0.52,-0.42,0.18,0.23,
15:15:39:690,1.40,1.40,-0.52,-0.43,0.13,0.17,
15:15:39:692,1.97,1.22,-0.34,-0.43,0.13,0.17,
15:15:39:695,2.15,1.05,-0.23,-0.43,0.13,0.17,
15:15:39:696,2.15,1.05,-0.23,-0.42,0.13,0.09,
15:15:39:700,2.01,0.99,-0.12,-0.42,0.13,0.09,
15:15:39:700,2.01,0.99,-0.12,-0.41,0.14,0.01,
15:15:39:705,1.80,0.93,-0.13,-0.41,0.14,0.01,
15:15:39:706,1.80,0.93,-0.13,-0.39,0.17,-0.05,
15:15:39:710,1.73,0.86,-0.13,-0.39,0.17,-0.05,
15:15:39:710,1.73,0.86,-0.13,-0.35,0.26,-0.08,
15:15:39:714,1.39,0.81,0.10,-0.35,0.26,-0.08,
15:15:39:714,1.39,0.81,0.10,-0.31,0.36,-0.10,
15:15:39:719,0.89,0.95,0.08,-0.31,0.36,-0.10,
15:15:39:720,0.89,0.95,0.08,-0.26,0.46,-0.10,
15:15:39:724,0.39,1.14,-0.01,-0.26,0.46,-0.10,
15:15:39:725,0.39,1.14,-0.01,-0.19,0.55,-0.10,
15:15:39:728,0.05,1.17,-0.15,-0.19,0.55,-0.10,
15:15:39:729,0.05,1.17,-0.15,-0.13,0.61,-0.07,
15:15:39:734,-0.25,1.15,-0.14,-0.13,0.61,-0.07,
15:15:39:734,-0.25,1.15,-0.14,-0.09,0.62,-0.02,
15:15:39:738,-0.50,1.14,-0.11,-0.09,0.62,-0.02,
15:15:39:739,-0.50,1.14,-0.11,-0.06,0.58,0.04,
15:15:39:743,-0.55,1.12,-0.13,-0.06,0.58,0.04,
15:15:39:743,-0.55,1.12,-0.13,-0.05,0.50,0.12,
15:15:39:748,-0.61,1.16,-0.36,-0.05,0.50,0.12,
15:15:39:748,-0.61,1.16,-0.36,-0.04,0.39,0.19,
15:15:39:753,-0.58,1.38,-0.92,-0.04,0.39,0.19,
15:15:39:754,-0.58,1.38,-0.92,-0.05,0.27,0.26,
15:15:39:758,-0.35,1.64,-1.52,-0.05,0.27,0.26,
15:15:39:758,-0.35,1.64,-1.52,-0.08,0.16,0.31,
15:15:39:762,0.24,1.74,-1.84,-0.08,0.16,0.31,
15:15:39:762,0.24,1.74,-1.84,-0.13,0.07,0.35,
15:15:39:767,0.68,1.94,-1.83,-0.13,0.07,0.35,
15:15:39:768,0.68,1.94,-1.83,-0.19,0.01,0.35,
15:15:39:773,1.23,2.10,-1.73,-0.19,0.01,0.35,
15:15:39:774,1.23,2.10,-1.73,-0.25,-0.05,0.34,
15:15:39:777,1.76,2.07,-1.70,-0.25,-0.05,0.34,
15:15:39:778,1.76,2.07,-1.70,-0.31,-0.10,0.30,
15:15:39:782,2.11,2.02,-1.55,-0.31,-0.10,0.30,
15:15:39:782,2.11,2.02,-1.55,-0.37,-0.14,0.25,
15:15:39:791,2.11,2.02,-1.55,-0.43,-0.17,0.18,
15:15:39:791,2.31,1.71,-1.40,-0.43,-0.17,0.18,
15:15:39:793,2.31,1.71,-1.40,-0.47,-0.17,0.11,
15:15:39:793,2.43,1.33,-1.19,-0.47,-0.17,0.11,
15:15:39:797,2.43,1.33,-1.19,-0.49,-0.16,0.04,
15:15:39:797,2.48,1.17,-0.82,-0.49,-0.16,0.04,
15:15:39:808,2.48,1.17,-0.82,-0.49,-0.14,-0.03,
15:15:39:809,2.48,1.10,-0.57,-0.49,-0.14,-0.03,
15:15:39:810,2.48,1.10,-0.57,-0.48,-0.09,-0.10,
15:15:39:811,2.48,1.10,-0.57,-0.44,-0.01,-0.16,
15:15:39:813,2.48,1.01,-0.40,-0.44,-0.01,-0.16,
15:15:39:814,2.47,0.91,-0.25,-0.44,-0.01,-0.16,
15:15:39:817,2.47,0.91,-0.25,-0.40,0.09,-0.22,
15:15:39:817,2.44,0.79,-0.06,-0.40,0.09,-0.22,
15:15:39:829,2.44,0.79,-0.06,-0.34,0.18,-0.28,
15:15:39:830,2.27,0.68,0.21,-0.34,0.18,-0.28,
15:15:39:831,1.83,0.67,0.30,-0.34,0.18,-0.28,
15:15:39:831,1.83,0.67,0.30,-0.28,0.26,-0.32,
15:15:39:833,1.83,0.67,0.30,-0.21,0.32,-0.34,
15:15:39:834,1.24,0.75,0.11,-0.21,0.32,-0.34,
15:15:39:840,1.24,0.75,0.11,-0.16,0.37,-0.33,
15:15:39:842,0.63,0.90,-0.19,-0.16,0.37,-0.33,
15:15:39:843,0.63,0.90,-0.19,-0.13,0.41,-0.29,
15:15:39:846,0.12,1.11,-0.30,-0.13,0.41,-0.29,
15:15:39:848,-0.15,1.35,-0.43,-0.13,0.41,-0.29,
15:15:39:848,-0.15,1.35,-0.43,-0.11,0.42,-0.23,
15:15:39:851,-0.08,1.53,-0.64,-0.11,0.42,-0.23,
15:15:39:854,-0.08,1.53,-0.64,-0.10,0.39,-0.16,
15:15:39:891,-0.08,1.53,-0.64,-0.11,0.33,-0.11,
15:15:39:893,0.15,1.62,-0.78,-0.11,0.33,-0.11,
15:15:39:894,0.15,1.62,-0.78,-0.14,0.25,-0.08,
15:15:39:894,0.38,1.62,-0.86,-0.14,0.25,-0.08,
15:15:39:895,0.38,1.62,-0.86,-0.17,0.14,-0.07,
15:15:39:895,0.47,1.60,-0.90,-0.17,0.14,-0.07,
15:15:39:895,0.47,1.60,-0.90,-0.21,0.03,-0.06,
15:15:39:896,0.51,1.58,-0.89,-0.21,0.03,-0.06,
15:15:39:896,0.58,1.54,-0.93,-0.21,0.03,-0.06,
15:15:39:897,0.58,1.54,-0.93,-0.25,-0.06,-0.05,
15:15:39:897,0.58,1.54,-0.93,-0.28,-0.14,-0.04,
15:15:39:897,0.72,1.44,-0.96,-0.28,-0.14,-0.04,
15:15:39:898,0.72,1.44,-0.96,-0.30,-0.19,-0.04,
15:15:39:898,1.01,1.34,-0.92,-0.30,-0.19,-0.04,
15:15:39:899,1.01,1.34,-0.92,-0.32,-0.23,-0.04,
15:15:39:899,1.28,1.26,-0.89,-0.32,-0.23,-0.04,
15:15:39:899,1.28,1.26,-0.89,-0.33,-0.24,-0.05,
15:15:39:900,1.47,1.20,-0.87,-0.33,-0.24,-0.05,
15:15:39:900,1.47,1.20,-0.87,-0.35,-0.24,-0.06,
15:15:39:900,1.53,1.13,-0.85,-0.35,-0.24,-0.06,
15:15:39:904,1.53,1.13,-0.85,-0.36,-0.22,-0.07,
15:15:39:905,1.65,1.07,-0.83,-0.36,-0.22,-0.07,
15:15:39:910,1.65,1.07,-0.83,-0.36,-0.18,-0.08,
15:15:39:910,1.83,1.00,-0.79,-0.36,-0.18,-0.08,
15:15:39:915,2.05,0.94,-0.71,-0.36,-0.18,-0.08,
15:15:39:915,2.05,0.94,-0.71,-0.35,-0.13,-0.10,
15:15:39:919,2.05,0.94,-0.71,-0.34,-0.06,-0.12,
15:15:39:920,2.16,0.90,-0.68,-0.34,-0.06,-0.12,
15:15:39:925,2.16,0.90,-0.68,-0.31,0.02,-0.15,
15:15:39:927,2.20,0.91,-0.56,-0.31,0.02,-0.15,
15:15:39:930,2.20,0.91,-0.56,-0.28,0.10,-0.18,
15:15:39:931,2.17,0.95,-0.43,-0.28,0.10,-0.18,
15:15:39:934,2.01,0.96,-0.32,-0.28,0.10,-0.18,
15:15:39:935,2.01,0.96,-0.32,-0.24,0.16,-0.21,
15:15:39:941,1.77,0.92,-0.33,-0.24,0.16,-0.21,
15:15:39:943,1.77,0.92,-0.33,-0.20,0.21,-0.24,
15:15:39:944,1.77,0.92,-0.33,-0.16,0.25,-0.25,
15:15:39:945,1.48,0.91,-0.40,-0.16,0.25,-0.25,
15:15:39:948,1.12,0.95,-0.52,-0.16,0.25,-0.25,
15:15:39:949,1.12,0.95,-0.52,-0.13,0.26,-0.26,
15:15:39:968,0.82,0.99,-0.63,-0.13,0.26,-0.26,
15:15:39:969,0.82,0.99,-0.63,-0.11,0.26,-0.24,
15:15:39:969,0.82,0.99,-0.63,-0.09,0.26,-0.21,
15:15:39:970,0.65,1.02,-0.65,-0.09,0.26,-0.21,
15:15:39:970,0.40,1.11,-0.60,-0.09,0.26,-0.21,
15:15:39:970,0.40,1.11,-0.60,-0.08,0.25,-0.19,
15:15:39:970,0.40,1.11,-0.60,-0.07,0.21,-0.15,
15:15:39:971,0.16,1.22,-0.82,-0.07,0.21,-0.15,
15:15:39:972,0.16,1.22,-0.82,-0.07,0.16,-0.11,
15:15:39:972,-0.05,1.34,-1.16,-0.07,0.16,-0.11,
15:15:39:978,-0.05,1.34,-1.16,-0.08,0.11,-0.07,
15:15:39:978,-0.27,1.43,-1.58,-0.08,0.11,-0.07,
15:15:39:983,-0.33,1.48,-1.83,-0.08,0.11,-0.07,
15:15:39:983,-0.33,1.48,-1.83,-0.11,0.06,-0.01,
15:15:39:988,-0.33,1.48,-1.83,-0.16,0.01,0.04,
15:15:39:989,-0.18,1.50,-1.99,-0.16,0.01,0.04,
15:15:39:992,-0.18,1.50,-1.99,-0.22,-0.06,0.08,
15:15:39:992,0.18,1.50,-2.16,-0.22,-0.06,0.08,
15:15:39:997,0.44,1.53,-2.27,-0.22,-0.06,0.08,
15:15:39:997,0.44,1.53,-2.27,-0.29,-0.14,0.10,
15:15:40:001,0.43,1.44,-2.13,-0.29,-0.14,0.10,
15:15:40:001,0.43,1.44,-2.13,-0.37,-0.22,0.10,
15:15:40:007,0.43,1.44,-2.13,-0.44,-0.33,0.11,
15:15:40:007,0.52,1.24,-1.99,-0.44,-0.33,0.11,
15:15:40:011,0.52,1.24,-1.99,-0.51,-0.45,0.12,
15:15:40:011,0.50,1.11,-1.94,-0.51,-0.45,0.12,
15:15:40:017,0.50,1.11,-1.94,-0.58,-0.58,0.12,
15:15:40:017,0.42,1.01,-1.90,-0.58,-0.58,0.12,
15:15:40:024,0.37,0.94,-1.82,-0.58,-0.58,0.12,
15:15:40:026,0.37,0.94,-1.82,-0.63,-0.70,0.13,
15:15:40:027,0.37,0.94,-1.82,-0.68,-0.81,0.15,
15:15:40:028,0.26,0.86,-1.69,-0.68,-0.81,0.15,
15:15:40:031,0.26,0.86,-1.69,-0.72,-0.93,0.18,
15:15:40:032,0.10,0.68,-1.72,-0.72,-0.93,0.18,
15:15:40:035,0.10,0.68,-1.72,-0.76,-1.04,0.22,
15:15:40:038,-0.03,0.59,-1.95,-0.76,-1.04,0.22,
15:15:40:057,-0.03,0.59,-1.95,-0.80,-1.14,0.26,
15:15:40:058,-0.12,0.70,-2.21,-0.80,-1.14,0.26,
15:15:40:058,-0.12,0.70,-2.21,-0.86,-1.22,0.33,
15:15:40:059,-0.37,0.96,-2.19,-0.86,-1.22,0.33,
15:15:40:059,-0.48,1.16,-2.32,-0.86,-1.22,0.33,
15:15:40:059,-0.48,1.16,-2.32,-0.92,-1.31,0.43,
15:15:40:059,-0.46,1.13,-2.53,-0.92,-1.31,0.43,
15:15:40:060,-0.46,1.13,-2.53,-0.99,-1.40,0.54,
15:15:40:060,-0.46,1.13,-2.53,-1.07,-1.46,0.62,
15:15:40:060,0.05,0.96,-2.96,-1.07,-1.46,0.62,
15:15:40:065,0.05,0.96,-2.96,-1.16,-1.46,0.67,
15:15:40:065,0.18,0.64,-3.34,-1.16,-1.46,0.67,
15:15:40:070,0.82,0.27,-3.23,-1.16,-1.46,0.67,
15:15:40:070,0.82,0.27,-3.23,-1.27,-1.43,0.72,
15:15:40:074,0.82,0.27,-3.23,-1.39,-1.37,0.74,
15:15:40:075,1.20,0.26,-2.62,-1.39,-1.37,0.74,
15:15:40:079,1.20,0.26,-2.62,-1.48,-1.32,0.76,
15:15:40:079,1.40,0.21,-1.78,-1.48,-1.32,0.76,
15:15:40:084,1.47,0.12,-1.07,-1.48,-1.32,0.76,
15:15:40:084,1.47,0.12,-1.07,-1.56,-1.30,0.77,
15:15:40:101,1.47,0.12,-1.07,-1.63,-1.31,0.79,
15:15:40:102,1.52,-0.03,-0.66,-1.63,-1.31,0.79,
15:15:40:102,1.52,-0.03,-0.66,-1.68,-1.32,0.82,
15:15:40:103,1.55,-0.25,-0.33,-1.68,-1.32,0.82,
15:15:40:154,1.45,-0.44,0.14,-1.68,-1.32,0.82,
15:15:40:155,1.45,-0.44,0.14,-1.71,-1.33,0.84,
15:15:40:156,1.45,-0.44,0.14,-1.72,-1.34,0.87,
15:15:40:157,1.38,-0.62,0.64,-1.72,-1.34,0.87,
15:15:40:158,1.21,-0.83,1.00,-1.72,-1.34,0.87,
15:15:40:159,1.21,-0.83,1.00,-1.71,-1.37,0.90,
15:15:40:160,1.21,-0.83,1.00,-1.67,-1.41,0.93,
15:15:40:161,0.87,-0.96,1.16,-1.67,-1.41,0.93,
15:15:40:161,0.87,-0.96,1.16,-1.63,-1.46,0.96,
15:15:40:162,0.52,-1.12,1.26,-1.63,-1.46,0.96,
15:15:40:162,0.52,-1.12,1.26,-1.57,-1.52,1.01,
15:15:40:163,0.18,-1.29,1.49,-1.57,-1.52,1.01,
15:15:40:164,-0.08,-1.43,1.72,-1.57,-1.52,1.01,
15:15:40:164,-0.08,-1.43,1.72,-1.51,-1.63,1.06,
15:15:40:165,-0.08,-1.43,1.72,-1.44,-1.78,1.12,
15:15:40:165,-0.36,-1.26,1.78,-1.44,-1.78,1.12,
15:15:40:166,-0.48,-0.95,1.81,-1.44,-1.78,1.12,
15:15:40:166,-0.48,-0.95,1.81,-1.36,-1.93,1.17,
15:15:40:170,-0.97,-1.06,1.47,-1.36,-1.93,1.17,
15:15:40:171,-0.97,-1.06,1.47,-1.28,-2.09,1.23,
15:15:40:172,-0.97,-1.06,1.47,-1.23,-2.30,1.30,
15:15:40:172,-0.96,-1.14,1.00,-1.23,-2.30,1.30,
15:15:40:173,-0.19,-1.20,0.53,-1.23,-2.30,1.30,
15:15:40:173,-0.19,-1.20,0.53,-1.19,-2.51,1.35,
15:15:40:174,-0.19,-1.20,0.53,-1.17,-2.70,1.36,
15:15:40:174,0.96,-1.28,0.45,-1.17,-2.70,1.36,
15:15:40:175,1.84,-1.08,0.32,-1.17,-2.70,1.36,
15:15:40:176,1.84,-1.08,0.32,-1.16,-2.84,1.32,
15:15:40:176,1.84,-1.08,0.32,-1.14,-2.90,1.24,
15:15:40:177,2.26,-0.89,0.18,-1.14,-2.90,1.24,
15:15:40:177,2.36,-0.86,0.06,-1.14,-2.90,1.24,
15:15:40:178,2.36,-0.86,0.06,-1.10,-2.91,1.15,
15:15:40:178,2.36,-0.86,0.06,-1.06,-2.88,1.06,
15:15:40:179,2.46,-0.82,-0.21,-1.06,-2.88,1.06,
15:15:40:180,2.18,-0.87,-0.55,-1.06,-2.88,1.06,
15:15:40:182,2.18,-0.87,-0.55,-1.00,-2.76,0.96,
15:15:40:185,2.18,-0.87,-0.55,-0.93,-2.57,0.89,
15:15:40:186,1.42,-0.88,-0.54,-0.93,-2.57,0.89,
15:15:40:191,1.42,-0.88,-0.54,-0.84,-2.32,0.86,
15:15:40:192,0.48,-0.68,-0.36,-0.84,-2.32,0.86,
15:15:40:195,0.48,-0.68,-0.36,-0.73,-2.05,0.88,
15:15:40:196,-0.23,-0.52,-0.26,-0.73,-2.05,0.88,
15:15:40:200,-0.23,-0.52,-0.26,-0.62,-1.78,0.93,
15:15:40:202,-0.80,-0.31,-0.08,-0.62,-1.78,0.93,
15:15:40:206,-0.80,-0.31,-0.08,-0.52,-1.55,1.01,
15:15:40:208,-1.27,0.01,-0.03,-0.52,-1.55,1.01,
15:15:40:257,-1.27,0.01,-0.03,-0.41,-1.36,1.11,
15:15:40:258,-1.41,0.15,-0.10,-0.41,-1.36,1.11,
15:15:40:258,-1.32,0.28,-0.31,-0.41,-1.36,1.11,
15:15:40:259,-1.32,0.28,-0.31,-0.33,-1.20,1.19,
15:15:40:259,-0.82,0.48,-0.80,-0.33,-1.20,1.19,
15:15:40:259,-0.82,0.48,-0.80,-0.27,-1.06,1.24,
15:15:40:260,-0.85,0.30,-0.96,-0.27,-1.06,1.24,
15:15:40:260,-0.85,0.30,-0.96,-0.26,-0.90,1.24,
15:15:40:261,-0.85,0.30,-0.96,-0.27,-0.79,1.22,
15:15:40:261,-0.64,0.14,-0.73,-0.27,-0.79,1.22,
15:15:40:261,-0.64,0.14,-0.73,-0.30,-0.76,1.19,
15:15:40:262,-0.44,0.13,-0.58,-0.30,-0.76,1.19,
15:15:40:263,-0.44,0.13,-0.58,-0.33,-0.76,1.15,
15:15:40:264,-0.24,0.12,-0.56,-0.33,-0.76,1.15,
15:15:40:264,-0.24,0.12,-0.56,-0.38,-0.78,1.11,
15:15:40:264,-0.24,0.12,-0.56,-0.44,-0.77,1.07,
15:15:40:265,-0.24,0.12,-0.56,-0.48,-0.72,1.07,
15:15:40:265,-0.16,0.17,-0.51,-0.48,-0.72,1.07,
15:15:40:266,-0.41,0.33,-0.55,-0.48,-0.72,1.07,
15:15:40:266,-0.68,0.49,-0.61,-0.48,-0.72,1.07,
15:15:40:267,-0.68,0.49,-0.61,-0.51,-0.62,1.08,
15:15:40:268,-0.95,0.53,-0.51,-0.51,-0.62,1.08,
15:15:40:268,-0.91,0.33,-0.08,-0.51,-0.62,1.08,
15:15:40:269,-0.91,0.33,-0.08,-0.54,-0.52,1.11,
15:15:40:269,-0.91,0.33,-0.08,-0.54,-0.44,1.14,
15:15:40:270,-0.73,0.06,0.62,-0.54,-0.44,1.14,
15:15:40:273,-0.73,0.06,0.62,-0.53,-0.42,1.17,
15:15:40:274,-1.03,-0.21,1.03,-0.53,-0.42,1.17,
15:15:40:277,-1.03,-0.21,1.03,-0.51,-0.41,1.19,
15:15:40:278,-1.24,-0.31,1.16,-0.51,-0.41,1.19,
15:15:40:283,-1.24,-0.31,1.16,-0.48,-0.40,1.20,
15:15:40:285,-1.53,-0.30,1.24,-0.48,-0.40,1.20,
15:15:40:287,-1.53,-0.30,1.24,-0.42,-0.38,1.20,
15:15:40:288,-1.92,-0.21,1.44,-0.42,-0.38,1.20,
15:15:40:292,-1.92,-0.21,1.44,-0.36,-0.36,1.21,
15:15:40:293,-2.29,-0.10,1.58,-0.36,-0.36,1.21,
15:15:40:297,-2.29,-0.10,1.58,-0.29,-0.38,1.23,
15:15:40:298,-2.64,0.01,1.59,-0.29,-0.38,1.23,
15:15:40:302,-2.64,0.01,1.59,-0.23,-0.42,1.25,
15:15:40:302,-2.84,0.09,1.55,-0.23,-0.42,1.25,
15:15:40:308,-2.82,0.16,1.38,-0.23,-0.42,1.25,
15:15:40:309,-2.82,0.16,1.38,-0.17,-0.50,1.27,
15:15:40:312,-2.82,0.16,1.38,-0.14,-0.60,1.30,
15:15:40:313,-2.55,0.29,1.02,-0.14,-0.60,1.30,
15:15:40:317,-2.34,0.37,0.42,-0.14,-0.60,1.30,
15:15:40:318,-2.34,0.37,0.42,-0.13,-0.69,1.31,
15:15:40:323,-2.08,0.38,-0.21,-0.13,-0.69,1.31,
15:15:40:325,-2.08,0.38,-0.21,-0.15,-0.72,1.31,
15:15:40:328,-2.08,0.38,-0.21,-0.17,-0.69,1.30,
15:15:40:328,-1.87,0.47,-0.61,-0.17,-0.69,1.30,
15:15:40:332,-1.76,0.59,-0.69,-0.17,-0.69,1.30,
15:15:40:332,-1.76,0.59,-0.69,-0.20,-0.62,1.30,
15:15:40:337,-1.82,0.74,-0.79,-0.20,-0.62,1.30,
15:15:40:338,-1.82,0.74,-0.79,-0.23,-0.54,1.31,
15:15:40:380,-1.86,0.79,-0.92,-0.23,-0.54,1.31,
15:15:40:381,-1.86,0.79,-0.92,-0.27,-0.44,1.34,
15:15:40:381,-1.72,0.64,-1.08,-0.27,-0.44,1.34,
15:15:40:382,-1.72,0.64,-1.08,-0.31,-0.33,1.37,
15:15:40:382,-1.59,0.46,-1.15,-0.31,-0.33,1.37,
15:15:40:383,-1.59,0.46,-1.15,-0.35,-0.22,1.38,
15:15:40:384,-1.59,0.46,-1.15,-0.39,-0.12,1.38,
15:15:40:384,-1.53,0.32,-0.91,-0.39,-0.12,1.38,
15:15:40:385,-1.53,0.32,-0.91,-0.44,-0.06,1.38,
15:15:40:386,-1.57,0.21,-0.45,-0.44,-0.06,1.38,
15:15:40:386,-1.57,0.21,-0.45,-0.48,-0.04,1.38,
15:15:40:387,-1.87,0.13,-0.09,-0.48,-0.04,1.38,
15:15:40:387,-1.87,0.13,-0.09,-0.51,-0.07,1.39,
15:15:40:388,-2.12,0.02,0.28,-0.51,-0.07,1.39,
15:15:40:388,-2.12,0.02,0.28,-0.54,-0.14,1.41,
15:15:40:389,-2.64,-0.01,0.68,-0.54,-0.14,1.41,
15:15:40:389,-2.64,-0.01,0.68,-0.55,-0.22,1.45,
15:15:40:390,-3.08,-0.07,1.04,-0.55,-0.22,1.45,
15:15:40:390,-3.24,-0.14,1.31,-0.55,-0.22,1.45,
15:15:40:391,-3.24,-0.14,1.31,-0.54,-0.32,1.50,
15:15:40:391,-3.07,-0.24,1.58,-0.54,-0.32,1.50,
15:15:40:392,-3.07,-0.24,1.58,-0.51,-0.46,1.54,
15:15:40:394,-3.07,-0.24,1.58,-0.47,-0.61,1.57,
15:15:40:395,-2.55,-0.44,1.63,-0.47,-0.61,1.57,
15:15:40:399,-2.55,-0.44,1.63,-0.44,-0.73,1.57,
15:15:40:401,-1.83,-0.57,1.34,-0.44,-0.73,1.57,
15:15:40:404,-1.25,-0.58,0.94,-0.44,-0.73,1.57,
15:15:40:406,-1.25,-0.58,0.94,-0.41,-0.77,1.55,
15:15:40:409,-0.88,-0.48,0.59,-0.41,-0.77,1.55,
15:15:40:410,-0.88,-0.48,0.59,-0.39,-0.73,1.53,
15:15:40:414,-0.88,-0.48,0.59,-0.39,-0.60,1.52,
15:15:40:415,-0.37,-0.33,0.47,-0.39,-0.60,1.52,
15:15:40:419,0.02,-0.22,0.55,-0.39,-0.60,1.52,
15:15:40:420,0.02,-0.22,0.55,-0.39,-0.44,1.52,
15:15:40:423,0.02,-0.22,0.55,-0.39,-0.26,1.53,
15:15:40:424,0.24,-0.16,0.66,-0.39,-0.26,1.53,
15:15:40:428,0.62,-0.25,0.91,-0.39,-0.26,1.53,
15:15:40:429,0.62,-0.25,0.91,-0.38,-0.08,1.54,
15:15:40:433,0.69,-0.41,1.15,-0.38,-0.08,1.54,
15:15:40:434,0.69,-0.41,1.15,-0.35,0.08,1.53,
15:15:40:439,0.62,-0.46,1.43,-0.35,0.08,1.53,
15:15:40:439,0.62,-0.46,1.43,-0.32,0.23,1.52,
15:15:40:444,0.62,-0.46,1.43,-0.27,0.37,1.53,
15:15:40:445,0.37,-0.42,1.76,-0.27,0.37,1.53,
15:15:40:448,0.37,-0.42,1.76,-0.21,0.48,1.54,
15:15:40:458,0.04,-0.31,1.94,-0.21,0.48,1.54,
15:15:40:459,-0.24,-0.20,1.91,-0.21,0.48,1.54,
15:15:40:460,-0.24,-0.20,1.91,-0.14,0.58,1.56,
15:15:40:470,-0.38,-0.25,2.04,-0.14,0.58,1.56,
15:15:40:472,-0.38,-0.25,2.04,-0.08,0.65,1.58,
15:15:40:473,-0.38,-0.25,2.04,-0.02,0.68,1.58,
15:15:40:474,-0.67,-0.24,2.19,-0.02,0.68,1.58,
15:15:40:474,-1.10,-0.03,2.10,-0.02,0.68,1.58,
15:15:40:475,-1.10,-0.03,2.10,0.03,0.67,1.58,
15:15:40:475,-1.52,0.14,2.06,0.03,0.67,1.58,
15:15:40:483,-1.52,0.14,2.06,0.08,0.62,1.59,
15:15:40:483,-1.52,0.14,2.06,0.12,0.54,1.61,
15:15:40:484,-1.81,0.18,2.09,0.12,0.54,1.61,
15:15:40:484,-1.81,0.18,2.09,0.16,0.42,1.64,
15:15:40:485,-1.87,0.21,1.98,0.16,0.42,1.64,
15:15:40:487,-1.87,0.21,1.98,0.19,0.28,1.68,
15:15:40:488,-1.63,0.20,1.81,0.19,0.28,1.68,
15:15:40:492,-1.63,0.20,1.81,0.20,0.12,1.70,
15:15:40:492,-1.08,0.12,1.58,0.20,0.12,1.70,
15:15:40:497,-1.08,0.12,1.58,0.21,-0.01,1.70,
15:15:40:498,-0.48,0.04,1.23,0.21,-0.01,1.70,
15:15:40:501,-0.48,0.04,1.23,0.21,-0.10,1.69,
15:15:40:502,-0.07,-0.03,0.89,0.21,-0.10,1.69,
15:15:40:506,-0.07,-0.03,0.89,0.21,-0.14,1.67,
15:15:40:507,0.11,-0.07,0.61,0.21,-0.14,1.67,
15:15:40:511,0.11,-0.07,0.61,0.20,-0.14,1.65,
15:15:40:512,0.26,-0.06,0.37,0.20,-0.14,1.65,
15:15:40:516,0.26,-0.06,0.37,0.20,-0.12,1.63,
15:15:40:517,0.41,-0.05,0.18,0.20,-0.12,1.63,
15:15:40:521,0.41,-0.05,0.18,0.19,-0.08,1.62,
15:15:40:522,0.46,0.05,0.12,0.19,-0.08,1.62,
15:15:40:526,0.46,0.05,0.12,0.18,-0.05,1.62,
15:15:40:527,0.42,0.12,0.21,0.18,-0.05,1.62,
15:15:40:531,0.35,0.15,0.35,0.18,-0.05,1.62,
15:15:40:531,0.35,0.15,0.35,0.16,-0.03,1.63,
15:15:40:538,0.35,0.15,0.35,0.15,-0.04,1.65,
15:15:40:539,0.31,0.07,0.37,0.15,-0.04,1.65,
15:15:40:543,0.31,0.07,0.37,0.14,-0.07,1.67,
15:15:40:544,0.29,-0.04,0.32,0.14,-0.07,1.67,
15:15:40:546,0.29,-0.04,0.32,0.12,-0.11,1.68,
15:15:40:547,0.28,-0.06,0.35,0.12,-0.11,1.68,
15:15:40:550,0.28,-0.06,0.35,0.10,-0.16,1.68,
15:15:40:551,0.41,-0.03,0.33,0.10,-0.16,1.68,
15:15:40:555,0.41,-0.03,0.33,0.08,-0.24,1.67,
15:15:40:556,0.80,-0.06,0.36,0.08,-0.24,1.67,
15:15:40:559,1.14,-0.07,0.19,0.08,-0.24,1.67,
15:15:40:560,1.14,-0.07,0.19,0.07,-0.31,1.65,
15:15:40:565,1.14,-0.07,0.19,0.05,-0.37,1.60,
15:15:40:566,1.55,-0.17,0.03,0.05,-0.37,1.60,
15:15:40:569,1.55,-0.17,0.03,0.04,-0.40,1.54,
15:15:40:570,1.53,-0.25,-0.21,0.04,-0.40,1.54,
15:15:40:591,1.53,-0.25,-0.21,0.02,-0.36,1.49,
15:15:40:592,1.02,-0.06,-0.57,0.02,-0.36,1.49,
15:15:40:592,0.67,0.10,-0.73,0.02,-0.36,1.49,
15:15:40:592,0.67,0.10,-0.73,0.01,-0.27,1.46,
15:15:40:632,0.60,0.19,-0.57,0.01,-0.27,1.46,
15:15:40:633,0.60,0.19,-0.57,0.01,-0.17,1.45,
15:15:40:633,0.60,0.19,-0.57,0.03,-0.10,1.44,
15:15:40:634,0.62,0.18,-0.35,0.03,-0.10,1.44,
15:15:40:635,0.62,0.18,-0.35,0.05,-0.07,1.42,
15:15:40:635,0.59,0.05,-0.21,0.05,-0.07,1.42,
15:15:40:637,0.59,0.05,-0.21,0.06,-0.07,1.42,
15:15:40:638,0.36,0.00,-0.44,0.06,-0.07,1.42,
15:15:40:638,0.01,-0.05,-0.92,0.06,-0.07,1.42,
15:15:40:639,0.01,-0.05,-0.92,0.06,-0.06,1.42,
15:15:40:639,-0.23,-0.28,-1.11,0.06,-0.06,1.42,
15:15:40:640,-0.23,-0.28,-1.11,0.04,-0.03,1.44,
15:15:40:640,-0.39,-0.52,-0.71,0.04,-0.03,1.44,
15:15:40:641,-0.39,-0.52,-0.71,0.00,-0.02,1.45,
15:15:40:642,-0.39,-0.52,-0.71,-0.03,-0.06,1.48,
15:15:40:643,-0.80,-0.41,-0.89,-0.03,-0.06,1.48,
15:15:40:644,-0.80,-0.41,-0.89,-0.07,-0.13,1.52,
15:15:40:644,-0.99,-0.27,-1.12,-0.07,-0.13,1.52,
15:15:40:645,-0.88,-0.35,-1.13,-0.07,-0.13,1.52,
15:15:40:645,-0.88,-0.35,-1.13,-0.12,-0.21,1.55,
15:15:40:646,-0.88,-0.35,-1.13,-0.17,-0.31,1.57,
15:15:40:647,-0.71,-0.54,-1.02,-0.17,-0.31,1.57,
15:15:40:648,-0.71,-0.54,-1.02,-0.21,-0.42,1.58,
15:15:40:648,-0.35,-0.98,-0.78,-0.21,-0.42,1.58,
15:15:40:649,-0.39,-1.29,-0.85,-0.21,-0.42,1.58,
15:15:40:649,-0.39,-1.29,-0.85,-0.28,-0.55,1.57,
15:15:40:650,-0.13,-1.58,-0.98,-0.28,-0.55,1.57,
15:15:40:651,-0.13,-1.58,-0.98,-0.35,-0.66,1.55,
15:15:40:652,0.65,-1.96,-0.91,-0.35,-0.66,1.55,
15:15:40:653,0.65,-1.96,-0.91,-0.43,-0.76,1.52,
15:15:40:656,1.07,-2.36,-0.96,-0.43,-0.76,1.52,
15:15:40:657,1.07,-2.36,-0.96,-0.49,-0.83,1.46,
15:15:40:663,1.28,-2.80,-1.10,-0.49,-0.83,1.46,
15:15:40:664,1.28,-2.80,-1.10,-0.54,-0.84,1.37,
15:15:40:667,1.35,-3.13,-1.19,-0.54,-0.84,1.37,
15:15:40:668,1.35,-3.13,-1.19,-0.58,-0.79,1.26,
15:15:40:671,1.25,-3.38,-1.29,-0.58,-0.79,1.26,
15:15:40:672,1.25,-3.38,-1.29,-0.63,-0.70,1.15,
15:15:40:676,1.13,-3.72,-1.16,-0.63,-0.70,1.15,
15:15:40:677,1.13,-3.72,-1.16,-0.67,-0.58,1.05,
15:15:40:681,1.13,-3.72,-1.16,-0.71,-0.45,0.97,
15:15:40:682,0.75,-3.89,-0.98,-0.71,-0.45,0.97,
15:15:40:686,0.75,-3.89,-0.98,-0.75,-0.31,0.92,
15:15:40:687,0.15,-4.02,-0.91,-0.75,-0.31,0.92,
15:15:40:691,0.15,-4.02,-0.91,-0.81,-0.15,0.93,
15:15:40:692,-0.37,-4.17,-0.65,-0.81,-0.15,0.93,
15:15:40:696,-0.37,-4.17,-0.65,-0.86,0.04,0.99,
15:15:40:697,-0.83,-4.28,-0.31,-0.86,0.04,0.99,
15:15:40:701,-1.15,-4.33,0.24,-0.86,0.04,0.99,
15:15:40:702,-1.15,-4.33,0.24,-0.90,0.24,1.10,
15:15:40:705,-1.30,-4.31,0.70,-0.90,0.24,1.10,
15:15:40:707,-1.30,-4.31,0.70,-0.91,0.43,1.23,
15:15:40:712,-1.30,-4.31,0.70,-0.91,0.62,1.36,
15:15:40:715,-1.13,-4.21,1.08,-0.91,0.62,1.36,
15:15:40:717,-1.13,-4.21,1.08,-0.90,0.77,1.46,
15:15:40:718,-0.90,-4.04,1.47,-0.90,0.77,1.46,
15:15:40:721,-0.72,-3.87,1.72,-0.90,0.77,1.46,
15:15:40:722,-0.72,-3.87,1.72,-0.88,0.88,1.54,
15:15:40:725,-0.40,-3.83,1.96,-0.88,0.88,1.54,
15:15:40:726,-0.40,-3.83,1.96,-0.88,0.94,1.59,
15:15:40:730,-0.40,-3.83,1.96,-0.87,0.96,1.62,
15:15:40:731,-0.08,-3.88,2.15,-0.87,0.96,1.62,
15:15:40:734,0.15,-3.93,2.23,-0.87,0.96,1.62,
15:15:40:736,0.15,-3.93,2.23,-0.88,0.96,1.62,
15:15:40:739,0.15,-3.93,2.23,-0.89,0.93,1.59,
15:15:40:739,0.38,-3.93,2.39,-0.89,0.93,1.59,
15:15:40:744,0.38,-3.93,2.39,-0.91,0.90,1.53,
15:15:40:745,0.73,-4.00,2.45,-0.91,0.90,1.53,
15:15:40:752,1.48,-4.13,2.81,-0.91,0.90,1.53,
15:15:40:753,1.48,-4.13,2.81,-0.93,0.87,1.44,
15:15:40:756,1.48,-4.13,2.81,-0.95,0.83,1.30,
15:15:40:756,2.25,-4.25,3.28,-0.95,0.83,1.30,
15:15:40:759,2.25,-4.25,3.28,-0.94,0.80,1.12,
15:15:40:761,2.57,-4.30,3.43,-0.94,0.80,1.12,
15:15:40:763,2.39,-4.11,3.65,-0.94,0.80,1.12,
15:15:40:764,2.39,-4.11,3.65,-0.91,0.83,0.90,
15:15:40:768,2.39,-4.11,3.65,-0.84,0.89,0.70,
15:15:40:770,1.55,-3.82,3.96,-0.84,0.89,0.70,
15:15:40:773,0.39,-3.53,4.04,-0.84,0.89,0.70,
15:15:40:774,0.39,-3.53,4.04,-0.75,0.98,0.56,
15:15:40:778,0.39,-3.53,4.04,-0.64,1.06,0.50,
15:15:40:779,-0.69,-3.15,3.92,-0.64,1.06,0.50,
15:15:40:784,-1.94,-2.60,3.81,-0.64,1.06,0.50,
15:15:40:785,-1.94,-2.60,3.81,-0.52,1.14,0.53,
15:15:40:789,-1.94,-2.60,3.81,-0.41,1.23,0.65,
15:15:40:790,-3.02,-2.39,3.62,-0.41,1.23,0.65,
15:15:40:794,-3.02,-2.39,3.62,-0.29,1.34,0.84,
15:15:40:795,-3.60,-2.29,3.55,-0.29,1.34,0.84,
15:15:40:798,-3.60,-2.29,3.55,-0.17,1.44,1.06,
15:15:40:800,-3.52,-2.14,3.49,-0.17,1.44,1.06,
15:15:40:802,-3.52,-2.14,3.49,-0.06,1.52,1.28,
15:15:40:803,-3.07,-1.91,3.25,-0.06,1.52,1.28,
15:15:40:812,-3.07,-1.91,3.25,0.04,1.56,1.46,
15:15:40:812,-2.31,-1.63,2.91,0.04,1.56,1.46,
15:15:40:813,-2.31,-1.63,2.91,0.12,1.57,1.56,
15:15:40:813,-1.35,-1.26,2.67,0.12,1.57,1.56,
15:15:40:817,-1.35,-1.26,2.67,0.19,1.58,1.61,
15:15:40:820,-0.67,-1.06,2.45,0.19,1.58,1.61,
15:15:40:822,-0.67,-1.06,2.45,0.24,1.52,1.62,
15:15:40:822,0.07,-0.85,2.05,0.24,1.52,1.62,
15:15:40:854,0.82,-0.53,1.60,0.24,1.52,1.62,
15:15:40:856,0.82,-0.53,1.60,0.26,1.42,1.59,
15:15:40:857,0.82,-0.53,1.60,0.23,1.29,1.53,
15:15:40:857,1.23,-0.22,1.21,0.23,1.29,1.53,
15:15:40:858,1.23,-0.22,1.21,0.18,1.15,1.44,
15:15:40:859,1.33,-0.12,0.77,0.18,1.15,1.44,
15:15:40:860,1.33,-0.12,0.77,0.11,1.04,1.36,
15:15:40:861,1.49,-0.19,0.32,0.11,1.04,1.36,
15:15:40:862,1.49,-0.19,0.32,0.03,0.95,1.28,
15:15:40:863,1.62,-0.17,-0.08,0.03,0.95,1.28,
15:15:40:863,1.62,-0.17,-0.08,-0.06,0.91,1.20,
15:15:40:864,1.62,-0.19,-0.17,-0.06,0.91,1.20,
15:15:40:866,1.62,-0.19,-0.17,-0.14,0.90,1.15,
15:15:40:867,1.59,-0.22,0.17,-0.14,0.90,1.15,
15:15:40:867,1.59,-0.22,0.17,-0.21,0.88,1.11,
15:15:40:868,1.68,-0.29,0.54,-0.21,0.88,1.11,
15:15:40:869,1.68,-0.29,0.54,-0.26,0.85,1.08,
15:15:40:870,1.84,-0.41,0.80,-0.26,0.85,1.08,
15:15:40:871,2.01,-0.62,1.19,-0.26,0.85,1.08,
15:15:40:871,2.01,-0.62,1.19,-0.29,0.80,1.06,
15:15:40:876,2.01,-0.62,1.19,-0.30,0.76,1.02,
15:15:40:876,2.23,-0.80,1.47,-0.30,0.76,1.02,
15:15:40:880,2.23,-0.80,1.47,-0.30,0.71,0.98,
15:15:40:881,2.38,-0.83,1.88,-0.30,0.71,0.98,
15:15:40:884,2.38,-0.83,1.88,-0.27,0.65,0.94,
15:15:40:885,2.46,-0.70,2.30,-0.27,0.65,0.94,
15:15:40:890,2.46,-0.70,2.30,-0.22,0.58,0.91,
15:15:40:891,2.42,-0.51,2.53,-0.22,0.58,0.91,
15:15:40:896,2.42,-0.51,2.53,-0.16,0.49,0.88,
15:15:40:897,2.50,-0.41,2.50,-0.16,0.49,0.88,
15:15:40:899,2.50,-0.41,2.50,-0.09,0.40,0.85,
15:15:40:900,2.86,-0.49,2.43,-0.09,0.40,0.85,
15:15:40:904,2.86,-0.49,2.43,-0.02,0.30,0.80,
15:15:40:905,3.14,-0.47,2.15,-0.02,0.30,0.80,
15:15:40:911,3.14,-0.47,2.15,0.05,0.22,0.73,
15:15:40:916,3.48,-0.45,1.74,0.05,0.22,0.73,
15:15:40:917,3.48,-0.45,1.74,0.10,0.18,0.65,
15:15:40:921,3.83,-0.32,1.35,0.10,0.18,0.65,
15:15:40:922,3.83,-0.32,1.35,0.15,0.16,0.58,
15:15:40:922,4.07,-0.20,0.92,0.15,0.16,0.58,
15:15:40:926,4.24,-0.07,0.60,0.15,0.16,0.58,
15:15:40:927,4.24,-0.07,0.60,0.18,0.18,0.51,
15:15:40:928,4.50,-0.03,0.36,0.18,0.18,0.51,
15:15:40:929,4.50,-0.03,0.36,0.21,0.21,0.44,
15:15:40:933,4.50,-0.03,0.36,0.24,0.27,0.37,
15:15:40:934,4.56,0.04,-0.05,0.24,0.27,0.37,
15:15:40:938,4.56,0.04,-0.05,0.27,0.37,0.31,
15:15:40:939,4.40,0.23,-0.46,0.27,0.37,0.31,
15:15:40:943,4.24,0.36,-0.75,0.27,0.37,0.31,
15:15:40:944,4.24,0.36,-0.75,0.29,0.50,0.28,
15:15:40:948,4.08,0.45,-0.95,0.29,0.50,0.28,
15:15:40:949,4.08,0.45,-0.95,0.32,0.64,0.25,
15:15:40:953,3.97,0.61,-0.99,0.32,0.64,0.25,
15:15:40:954,3.97,0.61,-0.99,0.34,0.78,0.24,
15:15:40:958,3.97,0.61,-0.99,0.37,0.89,0.24,
15:15:40:959,3.93,0.75,-1.07,0.37,0.89,0.24,
15:15:40:963,3.99,0.74,-1.21,0.37,0.89,0.24,
15:15:40:964,3.99,0.74,-1.21,0.40,0.98,0.23,
15:15:40:968,3.97,0.91,-1.06,0.40,0.98,0.23,
15:15:40:969,3.97,0.91,-1.06,0.42,1.04,0.21,
15:15:40:972,3.84,1.15,-0.89,0.42,1.04,0.21,
15:15:40:973,3.84,1.15,-0.89,0.44,1.05,0.17,
15:15:40:977,3.73,1.37,-0.75,0.44,1.05,0.17,
15:15:40:978,3.73,1.37,-0.75,0.46,1.02,0.13,
15:15:40:982,3.73,1.37,-0.75,0.49,0.95,0.10,
15:15:40:983,3.64,1.61,-0.72,0.49,0.95,0.10,
15:15:40:987,3.64,1.61,-0.72,0.51,0.85,0.07,
15:15:40:988,3.64,1.87,-0.84,0.51,0.85,0.07,
15:15:40:992,3.69,2.11,-1.12,0.51,0.85,0.07,
15:15:40:992,3.69,2.11,-1.12,0.52,0.74,0.04,
15:15:40:997,3.69,2.11,-1.12,0.53,0.63,0.00,
15:15:40:997,3.73,2.31,-1.40,0.53,0.63,0.00,
15:15:41:001,3.70,2.49,-1.61,0.53,0.63,0.00,
15:15:41:002,3.70,2.49,-1.61,0.53,0.54,-0.04,
15:15:41:006,3.70,2.49,-1.61,0.52,0.45,-0.09,
15:15:41:007,3.68,2.68,-1.86,0.52,0.45,-0.09,
15:15:41:011,3.68,2.68,-1.86,0.50,0.37,-0.14,
15:15:41:012,3.61,2.87,-1.94,0.50,0.37,-0.14,
15:15:41:016,3.56,3.05,-2.16,0.50,0.37,-0.14,
15:15:41:017,3.56,3.05,-2.16,0.47,0.29,-0.18,
15:15:41:021,3.56,3.05,-2.16,0.43,0.21,-0.22,
15:15:41:021,3.44,3.16,-2.35,0.43,0.21,-0.22,
15:15:41:025,3.30,3.16,-2.48,0.43,0.21,-0.22,
15:15:41:026,3.30,3.16,-2.48,0.39,0.13,-0.24,
15:15:41:032,3.30,3.16,-2.48,0.34,0.05,-0.26,
15:15:41:032,3.23,3.12,-2.60,0.34,0.05,-0.26,
15:15:41:037,3.26,3.07,-2.73,0.34,0.05,-0.26,
15:15:41:038,3.26,3.07,-2.73,0.29,-0.01,-0.29,
15:15:41:040,3.37,3.02,-2.81,0.29,-0.01,-0.29,
15:15:41:042,3.37,3.02,-2.81,0.24,-0.06,-0.31,
15:15:41:045,3.37,3.02,-2.81,0.20,-0.08,-0.33,
15:15:41:045,3.38,3.00,-3.03,0.20,-0.08,-0.33,
15:15:41:049,3.38,3.00,-3.03,0.16,-0.07,-0.35,
15:15:41:050,3.25,2.94,-3.21,0.16,-0.07,-0.35,
15:15:41:054,3.16,2.79,-3.39,0.16,-0.07,-0.35,
15:15:41:055,3.16,2.79,-3.39,0.12,-0.04,-0.36,
15:15:41:061,3.16,2.79,-3.39,0.09,0.02,-0.37,
15:15:41:062,3.30,2.59,-3.15,0.09,0.02,-0.37,
15:15:41:065,3.30,2.59,-3.15,0.06,0.07,-0.37,
15:15:41:067,3.42,2.50,-2.62,0.06,0.07,-0.37,
15:15:41:114,3.42,2.50,-2.62,0.05,0.10,-0.38,
15:15:41:115,3.46,2.31,-2.42,0.05,0.10,-0.38,
15:15:41:116,3.46,2.26,-2.46,0.05,0.10,-0.38,
15:15:41:117,3.46,2.26,-2.46,0.04,0.12,-0.39,
15:15:41:120,3.46,2.26,-2.46,0.04,0.16,-0.42,
15:15:41:121,3.48,2.43,-2.41,0.04,0.16,-0.42,
15:15:41:123,3.66,2.54,-2.18,0.04,0.16,-0.42,
15:15:41:124,3.66,2.54,-2.18,0.05,0.21,-0.47,
15:15:41:125,3.47,2.60,-2.21,0.05,0.21,-0.47,
15:15:41:127,3.47,2.60,-2.21,0.06,0.25,-0.50,
15:15:41:128,3.47,2.60,-2.21,0.06,0.29,-0.55,
15:15:41:128,3.41,2.55,-2.31,0.06,0.29,-0.55,
15:15:41:129,3.41,2.55,-2.31,0.05,0.33,-0.59,
15:15:41:129,3.35,2.60,-2.36,0.05,0.33,-0.59,
15:15:41:129,3.30,2.60,-2.33,0.05,0.33,-0.59,
15:15:41:130,3.30,2.60,-2.33,0.03,0.38,-0.64,
15:15:41:131,3.30,2.60,-2.33,0.02,0.45,-0.69,
15:15:41:132,3.29,2.49,-2.18,0.02,0.45,-0.69,
15:15:41:133,3.25,2.40,-2.06,0.02,0.45,-0.69,
15:15:41:134,3.25,2.40,-2.06,0.02,0.52,-0.74,
15:15:41:134,3.18,2.20,-1.93,0.02,0.52,-0.74,
15:15:41:135,3.18,2.20,-1.93,0.02,0.59,-0.78,
15:15:41:135,2.92,1.88,-1.96,0.02,0.59,-0.78,
15:15:41:137,2.92,1.88,-1.96,0.03,0.66,-0.81,
15:15:41:138,2.92,1.88,-1.96,0.03,0.71,-0.83,
15:15:41:138,2.66,1.59,-2.03,0.03,0.71,-0.83,
15:15:41:139,2.66,1.59,-2.03,0.03,0.76,-0.83,
15:15:41:139,2.17,1.43,-2.07,0.03,0.76,-0.83,
15:15:41:139,2.17,1.43,-2.07,0.03,0.82,-0.80,
15:15:41:140,1.89,1.18,-1.90,0.03,0.82,-0.80,
15:15:41:142,1.89,1.18,-1.90,0.03,0.86,-0.74,
15:15:41:143,1.57,0.90,-2.03,0.03,0.86,-0.74,
15:15:41:150,1.57,0.90,-2.03,0.02,0.92,-0.67,
15:15:41:151,1.58,0.54,-2.13,0.02,0.92,-0.67,
15:15:41:153,1.69,0.33,-1.88,0.02,0.92,-0.67,
15:15:41:154,1.69,0.33,-1.88,0.02,0.99,-0.63,
15:15:41:157,1.69,0.33,-1.88,0.02,1.04,-0.61,
15:15:41:158,1.80,0.21,-1.42,0.02,1.04,-0.61,
15:15:41:162,1.88,0.08,-1.18,0.02,1.04,-0.61,
15:15:41:163,1.88,0.08,-1.18,0.04,1.06,-0.58,
15:15:41:167,1.76,-0.01,-1.10,0.04,1.06,-0.58,
15:15:41:168,1.76,-0.01,-1.10,0.05,1.05,-0.57,
15:15:41:172,1.76,-0.01,-1.10,0.05,1.02,-0.56,
15:15:41:173,1.91,-0.18,-1.10,0.05,1.02,-0.56,
15:15:41:176,2.09,-0.35,-1.13,0.05,1.02,-0.56,
15:15:41:177,2.09,-0.35,-1.13,0.05,0.97,-0.57,
15:15:41:182,2.13,-0.48,-1.07,0.05,0.97,-0.57,
15:15:41:182,2.13,-0.48,-1.07,0.05,0.93,-0.60,
15:15:41:187,2.04,-0.63,-1.05,0.05,0.93,-0.60,
15:15:41:188,2.04,-0.63,-1.05,0.07,0.91,-0.63,
15:15:41:191,1.92,-0.76,-1.12,0.07,0.91,-0.63,
15:15:41:192,1.92,-0.76,-1.12,0.08,0.89,-0.64,
15:15:41:196,1.92,-0.76,-1.12,0.08,0.85,-0.65,
15:15:41:197,1.73,-0.71,-1.36,0.08,0.85,-0.65,
15:15:41:201,1.73,-0.71,-1.36,0.07,0.83,-0.65,
15:15:41:202,1.51,-0.84,-1.62,0.07,0.83,-0.65,
15:15:41:206,1.51,-0.84,-1.62,0.06,0.87,-0.64,
15:15:41:207,0.99,-1.08,-1.87,0.06,0.87,-0.64,
15:15:41:211,0.78,-1.22,-1.94,0.06,0.87,-0.64,
15:15:41:211,0.78,-1.22,-1.94,0.04,0.93,-0.60,
15:15:41:216,0.78,-1.22,-1.94,0.03,0.99,-0.53,
15:15:41:218,0.91,-1.38,-1.73,0.03,0.99,-0.53,
15:15:41:220,0.91,-1.38,-1.73,0.01,1.01,-0.45,
15:15:41:221,1.15,-1.69,-1.45,0.01,1.01,-0.45,
15:15:41:225,1.39,-2.05,-1.23,0.01,1.01,-0.45,
15:15:41:225,1.39,-2.05,-1.23,-0.01,1.01,-0.38,
15:15:41:229,1.39,-2.05,-1.23,-0.03,0.97,-0.32,
15:15:41:230,1.71,-2.36,-1.12,-0.03,0.97,-0.32,
15:15:41:235,2.11,-2.55,-0.97,-0.03,0.97,-0.32,
15:15:41:235,2.11,-2.55,-0.97,-0.05,0.94,-0.29,
15:15:41:239,2.48,-2.68,-0.77,-0.05,0.94,-0.29,
15:15:41:240,2.48,-2.68,-0.77,-0.06,0.89,-0.27,
15:15:41:244,2.77,-2.81,-0.56,-0.06,0.89,-0.27,
15:15:41:245,2.77,-2.81,-0.56,-0.07,0.83,-0.28,
15:15:41:249,2.77,-2.81,-0.56,-0.07,0.75,-0.30,
15:15:41:250,3.07,-2.96,-0.66,-0.07,0.75,-0.30,
15:15:41:255,3.07,-2.96,-0.66,-0.08,0.68,-0.35,
15:15:41:256,3.26,-3.18,-0.67,-0.08,0.68,-0.35,
15:15:41:261,3.37,-3.28,-0.61,-0.08,0.68,-0.35,
15:15:41:263,3.37,-3.28,-0.61,-0.09,0.61,-0.41,
15:15:41:265,3.37,-3.28,-0.61,-0.10,0.52,-0.48,
15:15:41:268,3.70,-3.25,-0.57,-0.10,0.52,-0.48,
15:15:41:270,3.70,-3.25,-0.57,-0.11,0.45,-0.56,
15:15:41:274,3.86,-3.41,-0.53,-0.11,0.45,-0.56,
15:15:41:276,3.86,-3.41,-0.53,-0.12,0.39,-0.64,
15:15:41:279,4.06,-3.55,-0.67,-0.12,0.39,-0.64,
15:15:41:281,4.06,-3.55,-0.67,-0.13,0.36,-0.72,
15:15:41:282,4.39,-3.63,-0.81,-0.13,0.36,-0.72,
15:15:41:285,4.55,-3.71,-0.94,-0.13,0.36,-0.72,
15:15:41:289,4.55,-3.71,-0.94,-0.14,0.38,-0.79,
15:15:41:290,4.47,-3.90,-1.16,-0.14,0.38,-0.79,
15:15:41:291,4.47,-3.90,-1.16,-0.15,0.43,-0.87,
15:15:41:295,4.40,-3.95,-1.37,-0.15,0.43,-0.87,
15:15:41:297,4.40,-3.95,-1.37,-0.17,0.53,-0.94,
15:15:41:298,4.40,-3.95,-1.37,-0.19,0.64,-1.00,
15:15:41:299,4.18,-3.98,-1.46,-0.19,0.64,-1.00,
15:15:41:302,3.76,-4.09,-1.50,-0.19,0.64,-1.00,
15:15:41:304,3.76,-4.09,-1.50,-0.22,0.73,-1.05,
15:15:41:309,3.76,-4.09,-1.50,-0.26,0.82,-1.08,
15:15:41:311,3.24,-4.25,-1.56,-0.26,0.82,-1.08,
15:15:41:348,2.82,-4.31,-1.42,-0.26,0.82,-1.08,
15:15:41:349,2.82,-4.31,-1.42,-0.31,0.90,-1.09,
15:15:41:350,2.82,-4.31,-1.42,-0.36,0.96,-1.07,
15:15:41:351,2.47,-4.31,-1.12,-0.36,0.96,-1.07,
15:15:41:352,2.40,-4.00,-0.97,-0.36,0.96,-1.07,
15:15:41:352,2.40,-4.00,-0.97,-0.41,0.98,-1.05,
15:15:41:353,2.11,-3.89,-0.87,-0.41,0.98,-1.05,
15:15:41:353,2.11,-3.89,-0.87,-0.46,0.99,-1.03,
15:15:41:354,2.11,-3.89,-0.87,-0.50,1.01,-1.00,
15:15:41:354,1.88,-4.04,-0.80,-0.50,1.01,-1.00,
15:15:41:355,1.88,-4.04,-0.80,-0.54,1.02,-0.96,
15:15:41:356,2.01,-4.10,-0.63,-0.54,1.02,-0.96,
15:15:41:357,2.26,-3.98,-0.39,-0.54,1.02,-0.96,
15:15:41:358,2.26,-3.98,-0.39,-0.58,1.02,-0.95,
15:15:41:358,2.26,-3.98,-0.39,-0.61,1.02,-0.96,
15:15:41:359,2.29,-3.77,0.00,-0.61,1.02,-0.96,
15:15:41:359,2.29,-3.77,0.00,-0.62,1.01,-0.98,
15:15:41:360,2.20,-3.52,0.23,-0.62,1.01,-0.98,
15:15:41:361,2.31,-3.36,0.47,-0.62,1.01,-0.98,
15:15:41:362,2.31,-3.36,0.47,-0.63,1.00,-1.00,
15:15:41:362,2.31,-3.36,0.47,-0.63,0.96,-1.02,
15:15:41:362,2.53,-3.26,0.74,-0.63,0.96,-1.02,
15:15:41:366,2.53,-3.26,0.74,-0.63,0.90,-1.06,
15:15:41:367,2.74,-3.18,1.02,-0.63,0.90,-1.06,
15:15:41:371,2.74,-3.18,1.02,-0.61,0.82,-1.11,
15:15:41:372,2.89,-3.18,1.21,-0.61,0.82,-1.11,
15:15:41:376,3.06,-3.13,1.42,-0.61,0.82,-1.11,
15:15:41:377,3.06,-3.13,1.42,-0.60,0.74,-1.17,
15:15:41:380,3.06,-3.13,1.42,-0.58,0.65,-1.25,
15:15:41:381,3.02,-3.04,1.44,-0.58,0.65,-1.25,
15:15:41:385,3.02,-3.04,1.44,-0.57,0.55,-1.33,
15:15:41:386,2.83,-3.04,1.36,-0.57,0.55,-1.33,
15:15:41:390,2.57,-3.18,1.07,-0.57,0.55,-1.33,
15:15:41:391,2.57,-3.18,1.07,-0.57,0.45,-1.41,
15:15:41:395,2.57,-3.18,1.07,-0.59,0.37,-1.48,
15:15:41:396,2.24,-3.40,0.74,-0.59,0.37,-1.48,
15:15:41:400,2.24,-3.40,0.74,-0.63,0.30,-1.54,
15:15:41:400,2.01,-3.65,0.52,-0.63,0.30,-1.54,
15:15:41:405,1.78,-3.77,0.38,-0.63,0.30,-1.54,
15:15:41:406,1.78,-3.77,0.38,-0.67,0.23,-1.60,
15:15:41:409,1.63,-3.73,0.28,-0.67,0.23,-1.60,
15:15:41:410,1.63,-3.73,0.28,-0.72,0.17,-1.65,
15:15:41:414,1.63,-3.73,0.28,-0.77,0.10,-1.69,
15:15:41:415,1.41,-3.52,0.28,-0.77,0.10,-1.69,
15:15:41:420,1.41,-3.52,0.28,-0.82,0.04,-1.71,
15:15:41:421,0.66,-3.27,0.34,-0.82,0.04,-1.71,
15:15:41:424,0.66,-3.27,0.34,-0.87,-0.04,-1.69,
15:15:41:425,-0.38,-3.06,0.35,-0.87,-0.04,-1.69,
15:15:41:429,-1.30,-2.99,0.23,-0.87,-0.04,-1.69,
15:15:41:429,-1.30,-2.99,0.23,-0.93,-0.13,-1.62,
15:15:41:434,-2.02,-2.88,0.38,-0.93,-0.13,-1.62,
15:15:41:434,-2.02,-2.88,0.38,-0.98,-0.21,-1.50,
15:15:41:438,-2.32,-2.63,0.83,-0.98,-0.21,-1.50,
15:15:41:439,-2.32,-2.63,0.83,-1.03,-0.29,-1.34,
15:15:41:444,-2.32,-2.63,0.83,-1.06,-0.37,-1.15,
15:15:41:444,-2.26,-2.32,1.21,-1.06,-0.37,-1.15,
15:15:41:449,-2.26,-2.32,1.21,-1.06,-0.45,-0.97,
15:15:41:450,-1.93,-2.02,1.45,-1.06,-0.45,-0.97,
15:15:41:453,-1.54,-1.84,1.58,-1.06,-0.45,-0.97,
15:15:41:454,-1.54,-1.84,1.58,-1.05,-0.54,-0.83,
15:15:41:458,-1.17,-1.73,1.54,-1.05,-0.54,-0.83,
15:15:41:459,-1.17,-1.73,1.54,-1.04,-0.61,-0.73,
15:15:41:462,-1.17,-1.73,1.54,-1.02,-0.67,-0.67,
15:15:41:463,-0.72,-1.77,1.82,-1.02,-0.67,-0.67,
15:15:41:467,-0.30,-1.84,2.27,-1.02,-0.67,-0.67,
15:15:41:468,-0.30,-1.84,2.27,-1.00,-0.74,-0.65,
15:15:41:472,-0.30,-1.84,2.27,-0.95,-0.81,-0.68,
15:15:41:473,0.07,-1.89,2.71,-0.95,-0.81,-0.68,
15:15:41:477,0.07,-1.89,2.71,-0.89,-0.91,-0.75,
15:15:41:478,0.32,-1.90,2.90,-0.89,-0.91,-0.75,
15:15:41:482,0.32,-1.90,2.90,-0.81,-0.99,-0.84,
15:15:41:482,0.29,-1.80,2.99,-0.81,-0.99,-0.84,
15:15:41:489,0.10,-1.61,3.03,-0.81,-0.99,-0.84,
15:15:41:489,0.10,-1.61,3.03,-0.72,-1.06,-0.94,
15:15:41:492,0.10,-1.61,3.03,-0.62,-1.10,-1.03,
15:15:41:492,-0.42,-1.37,3.01,-0.62,-1.10,-1.03,
15:15:41:498,-1.28,-1.10,2.96,-0.62,-1.10,-1.03,
15:15:41:499,-1.28,-1.10,2.96,-0.51,-1.12,-1.10,
15:15:41:502,-1.28,-1.10,2.96,-0.40,-1.14,-1.13,
15:15:41:504,-2.20,-0.85,2.79,-0.40,-1.14,-1.13,
15:15:41:507,-2.20,-0.85,2.79,-0.29,-1.15,-1.11,
15:15:41:508,-2.98,-0.58,2.54,-0.29,-1.15,-1.11,
15:15:41:512,-2.98,-0.58,2.54,-0.19,-1.13,-1.05,
15:15:41:513,-3.57,-0.26,2.42,-0.19,-1.13,-1.05,
15:15:41:517,-3.57,-0.26,2.42,-0.10,-1.12,-0.96,
15:15:41:518,-3.95,-0.01,2.26,-0.10,-1.12,-0.96,
15:15:41:524,-3.95,-0.01,2.26,-0.01,-1.12,-0.86,
15:15:41:525,-4.16,0.21,2.13,-0.01,-1.12,-0.86,
15:15:41:526,-4.16,0.21,2.13,0.06,-1.14,-0.75,
15:15:41:527,-4.24,0.48,1.99,0.06,-1.14,-0.75,
15:15:41:531,-4.21,0.75,1.92,0.06,-1.14,-0.75,
15:15:41:532,-4.21,0.75,1.92,0.12,-1.19,-0.65,
15:15:41:539,-4.03,1.00,1.81,0.12,-1.19,-0.65,
15:15:41:541,-4.03,1.00,1.81,0.16,-1.27,-0.56,
15:15:41:542,-4.03,1.00,1.81,0.20,-1.37,-0.48,
15:15:41:543,-3.75,1.21,1.78,0.20,-1.37,-0.48,
15:15:41:547,-3.46,1.34,1.66,0.20,-1.37,-0.48,
15:15:41:548,-3.46,1.34,1.66,0.24,-1.50,-0.42,
15:15:41:551,-3.46,1.34,1.66,0.27,-1.64,-0.37,
15:15:41:553,-3.19,1.54,1.32,0.27,-1.64,-0.37,
15:15:41:615,-3.19,1.54,1.32,0.29,-1.77,-0.34,
15:15:41:616,-2.71,1.72,1.17,0.29,-1.77,-0.34,
15:15:41:618,-2.05,1.82,1.10,0.29,-1.77,-0.34,
15:15:41:618,-2.05,1.82,1.10,0.31,-1.91,-0.34,
15:15:41:619,-2.05,1.82,1.10,0.32,-2.05,-0.37,
15:15:41:619,-1.52,1.85,1.08,0.32,-2.05,-0.37,
15:15:41:620,-1.52,1.85,1.08,0.34,-2.18,-0.43,
15:15:41:620,-1.25,1.86,1.03,0.34,-2.18,-0.43,
15:15:41:620,-1.25,1.86,1.03,0.37,-2.26,-0.51,
15:15:41:621,-1.10,1.86,0.86,0.37,-2.26,-0.51,
15:15:41:622,-1.10,1.86,0.86,0.41,-2.30,-0.59,
15:15:41:622,-0.93,1.88,0.77,0.41,-2.30,-0.59,
15:15:41:623,-0.94,2.07,0.78,0.41,-2.30,-0.59,
15:15:41:623,-0.94,2.07,0.78,0.46,-2.28,-0.68,
15:15:41:624,-0.94,2.07,0.78,0.52,-2.25,-0.76,
15:15:41:624,-1.06,2.32,0.82,0.52,-2.25,-0.76,
15:15:41:625,-1.08,2.53,0.81,0.52,-2.25,-0.76,
15:15:41:625,-1.08,2.53,0.81,0.58,-2.20,-0.83,
15:15:41:626,-1.18,2.65,0.63,0.58,-2.20,-0.83,
15:15:41:626,-1.18,2.65,0.63,0.64,-2.14,-0.89,
15:15:41:627,-1.18,2.65,0.63,0.70,-2.06,-0.93,
15:15:41:628,-1.31,2.70,0.34,0.70,-2.06,-0.93,
15:15:41:628,-1.52,2.81,0.03,0.70,-2.06,-0.93,
15:15:41:629,-1.52,2.81,0.03,0.75,-1.94,-0.96,
15:15:41:629,-1.52,2.81,0.03,0.77,-1.79,-0.98,
15:15:41:630,-1.74,2.94,-0.23,0.77,-1.79,-0.98,
15:15:41:630,-1.74,2.94,-0.23,0.79,-1.63,-0.99,
15:15:41:631,-1.89,3.05,-0.40,0.79,-1.63,-0.99,
15:15:41:631,-2.02,3.14,-0.47,0.79,-1.63,-0.99,
15:15:41:632,-2.02,3.14,-0.47,0.79,-1.47,-0.99,
15:15:41:632,-2.02,3.14,-0.47,0.78,-1.33,-0.98,
15:15:41:633,-2.22,3.20,-0.55,0.78,-1.33,-0.98,
15:15:41:634,-2.22,3.20,-0.55,0.76,-1.21,-0.97,
15:15:41:634,-2.79,3.22,-0.54,0.76,-1.21,-0.97,
15:15:41:637,-2.79,3.22,-0.54,0.72,-1.13,-0.95,
15:15:41:638,-3.55,3.15,-0.50,0.72,-1.13,-0.95,
15:15:41:642,-3.55,3.15,-0.50,0.68,-1.09,-0.91,
15:15:41:643,-4.12,3.17,-0.43,0.68,-1.09,-0.91,
15:15:41:647,-4.12,3.17,-0.43,0.64,-1.09,-0.83,
15:15:41:648,-4.52,3.31,-0.39,0.64,-1.09,-0.83,
15:15:41:652,-4.73,3.42,-0.22,0.64,-1.09,-0.83,
15:15:41:653,-4.73,3.42,-0.22,0.60,-1.11,-0.74,
15:15:41:657,-4.73,3.42,-0.22,0.55,-1.17,-0.64,
15:15:41:658,-4.75,3.36,0.05,0.55,-1.17,-0.64,
15:15:41:662,-4.75,3.36,0.05,0.50,-1.24,-0.56,
15:15:41:663,-4.59,3.17,0.28,0.50,-1.24,-0.56,
15:15:41:667,-4.27,2.88,0.48,0.50,-1.24,-0.56,
15:15:41:668,-4.27,2.88,0.48,0.46,-1.31,-0.49,
15:15:41:672,-3.88,2.53,0.84,0.46,-1.31,-0.49,
15:15:41:673,-3.88,2.53,0.84,0.42,-1.38,-0.45,
15:15:41:677,-3.88,2.53,0.84,0.40,-1.43,-0.43,
15:15:41:677,-3.43,2.18,1.31,0.40,-1.43,-0.43,
15:15:41:682,-3.43,2.18,1.31,0.39,-1.48,-0.45,
15:15:41:683,-3.07,1.87,1.66,0.39,-1.48,-0.45,
15:15:41:687,-3.07,1.87,1.66,0.41,-1.54,-0.48,
15:15:41:687,-2.82,1.59,2.01,0.41,-1.54,-0.48,
15:15:41:691,-2.89,1.41,2.38,0.41,-1.54,-0.48,
15:15:41:692,-2.89,1.41,2.38,0.46,-1.58,-0.53,
15:15:41:696,-3.11,1.27,2.55,0.46,-1.58,-0.53,
15:15:41:697,-3.11,1.27,2.55,0.54,-1.62,-0.58,
15:15:41:701,-3.38,1.20,2.36,0.54,-1.62,-0.58,
15:15:41:702,-3.38,1.20,2.36,0.64,-1.63,-0.61,
15:15:41:706,-3.63,1.10,1.98,0.64,-1.63,-0.61,
15:15:41:707,-3.63,1.10,1.98,0.74,-1.61,-0.63,
15:15:41:711,-3.63,1.10,1.98,0.82,-1.55,-0.63,
15:15:41:712,-3.82,0.93,1.49,0.82,-1.55,-0.63,
15:15:41:716,-4.16,0.84,1.17,0.82,-1.55,-0.63,
15:15:41:716,-4.16,0.84,1.17,0.88,-1.46,-0.62,
15:15:41:721,-4.62,0.78,0.78,0.88,-1.46,-0.62,
15:15:41:722,-4.62,0.78,0.78,0.92,-1.34,-0.60,
15:15:41:727,-4.96,0.82,0.44,0.92,-1.34,-0.60,
15:15:41:727,-4.96,0.82,0.44,0.94,-1.22,-0.55,
15:15:41:730,-4.97,1.13,-0.10,0.94,-1.22,-0.55,
15:15:41:730,-4.97,1.13,-0.10,0.92,-1.08,-0.48,
15:15:41:736,-5.38,0.86,-0.47,0.92,-1.08,-0.48,
15:15:41:737,-5.38,0.86,-0.47,0.88,-0.92,-0.42,
15:15:41:741,-5.38,0.86,-0.47,0.82,-0.77,-0.33,
15:15:41:742,-5.34,0.37,-0.53,0.82,-0.77,-0.33,
15:15:41:744,-5.34,-0.13,-0.45,0.82,-0.77,-0.33,
15:15:41:745,-5.34,-0.13,-0.45,0.74,-0.66,-0.24,
15:15:41:749,-5.30,-0.54,-0.22,0.74,-0.66,-0.24,
15:15:41:750,-5.30,-0.54,-0.22,0.67,-0.59,-0.16,
15:15:41:754,-5.09,-0.65,0.06,0.67,-0.59,-0.16,
15:15:41:754,-5.09,-0.65,0.06,0.60,-0.54,-0.08,
15:15:41:759,-5.09,-0.65,0.06,0.54,-0.52,-0.02,
15:15:41:760,-5.01,-0.59,0.27,0.54,-0.52,-0.02,
15:15:41:765,-5.01,-0.59,0.27,0.48,-0.51,0.03,
15:15:41:766,-4.93,-0.62,0.47,0.48,-0.51,0.03,
15:15:41:769,-4.88,-0.83,0.61,0.48,-0.51,0.03,
15:15:41:770,-4.88,-0.83,0.61,0.43,-0.52,0.07,
15:15:41:774,-4.98,-1.14,0.84,0.43,-0.52,0.07,
15:15:41:775,-4.98,-1.14,0.84,0.38,-0.53,0.12,
15:15:41:780,-4.98,-1.14,0.84,0.35,-0.54,0.17,
15:15:41:781,-5.00,-1.51,1.04,0.35,-0.54,0.17,
15:15:41:783,-5.00,-1.89,1.19,0.35,-0.54,0.17,
15:15:41:784,-5.00,-1.89,1.19,0.32,-0.53,0.22,
15:15:41:788,-5.00,-1.89,1.19,0.31,-0.52,0.28,
15:15:41:789,-5.10,-2.19,1.44,0.31,-0.52,0.28,
15:15:41:794,-5.12,-2.58,1.56,0.31,-0.52,0.28,
15:15:41:795,-5.12,-2.58,1.56,0.30,-0.52,0.33,
15:15:41:848,-5.11,-2.81,1.61,0.30,-0.52,0.33,
15:15:41:849,-5.11,-2.81,1.61,0.29,-0.51,0.39,
15:15:41:849,-5.11,-2.81,1.61,0.30,-0.49,0.45,
15:15:41:850,-5.00,-2.95,1.47,0.30,-0.49,0.45,
15:15:41:851,-5.00,-2.95,1.47,0.29,-0.46,0.49,
15:15:41:852,-4.84,-3.09,1.34,0.29,-0.46,0.49,
15:15:41:853,-4.84,-3.09,1.34,0.29,-0.42,0.53,
15:15:41:854,-4.73,-3.29,1.22,0.29,-0.42,0.53,
15:15:41:854,-4.73,-3.29,1.22,0.27,-0.35,0.56,
15:15:41:855,-4.63,-3.55,1.05,0.27,-0.35,0.56,
15:15:41:856,-4.63,-3.55,1.05,0.26,-0.27,0.59,
15:15:41:857,-4.69,-3.70,0.95,0.26,-0.27,0.59,
15:15:41:858,-4.85,-3.74,1.03,0.26,-0.27,0.59,
15:15:41:858,-4.85,-3.74,1.03,0.24,-0.17,0.62,
15:15:41:859,-4.99,-3.84,1.10,0.24,-0.17,0.62,
15:15:41:859,-4.99,-3.84,1.10,0.22,-0.06,0.65,
15:15:41:860,-5.09,-3.83,1.24,0.22,-0.06,0.65,
15:15:41:861,-5.09,-3.83,1.24,0.21,0.04,0.69,
15:15:41:862,-5.09,-3.83,1.24,0.20,0.13,0.74,
15:15:41:862,-5.12,-3.64,1.33,0.20,0.13,0.74,
15:15:41:863,-5.16,-3.38,1.33,0.20,0.13,0.74,
15:15:41:863,-5.16,-3.38,1.33,0.19,0.22,0.78,
15:15:41:864,-5.21,-3.31,1.20,0.19,0.22,0.78,
15:15:41:865,-5.21,-3.31,1.20,0.18,0.29,0.83,
15:15:41:865,-5.26,-3.38,1.09,0.18,0.29,0.83,
15:15:41:866,-5.26,-3.38,1.09,0.17,0.36,0.88,
15:15:41:867,-5.39,-3.45,1.02,0.17,0.36,0.88,
15:15:41:867,-5.39,-3.45,1.02,0.14,0.42,0.92,
15:15:41:868,-5.64,-3.48,0.82,0.14,0.42,0.92,
15:15:41:868,-5.64,-3.48,0.82,0.10,0.46,0.96,
15:15:41:870,-5.64,-3.48,0.82,0.04,0.51,1.00,
15:15:41:871,-5.84,-3.44,0.57,0.04,0.51,1.00,
15:15:41:875,-5.84,-3.44,0.57,-0.02,0.56,1.05,
15:15:41:876,-5.91,-3.34,0.59,-0.02,0.56,1.05,
15:15:41:880,-5.91,-3.34,0.59,-0.10,0.61,1.10,
15:15:41:881,-5.92,-3.09,0.75,-0.10,0.61,1.10,
15:15:41:885,-5.79,-2.80,0.95,-0.10,0.61,1.10,
15:15:41:885,-5.79,-2.80,0.95,-0.17,0.66,1.15,
15:15:41:890,-5.60,-2.42,1.16,-0.17,0.66,1.15,
15:15:41:891,-5.60,-2.42,1.16,-0.22,0.70,1.19,
15:15:41:895,-5.60,-2.42,1.16,-0.26,0.75,1.22,
15:15:41:896,-5.25,-2.10,1.37,-0.26,0.75,1.22,
15:15:41:900,-5.25,-2.10,1.37,-0.29,0.81,1.23,
15:15:41:901,-4.81,-1.92,1.42,-0.29,0.81,1.23,
15:15:41:905,-4.81,-1.92,1.42,-0.32,0.87,1.23,
15:15:41:906,-4.67,-1.77,1.41,-0.32,0.87,1.23,
15:15:41:909,-4.67,-1.77,1.41,-0.33,0.95,1.23,
15:15:41:910,-4.66,-1.63,1.57,-0.33,0.95,1.23,
15:15:41:915,-4.69,-1.57,1.82,-0.33,0.95,1.23,
15:15:41:916,-4.69,-1.57,1.82,-0.34,1.02,1.24,
15:15:41:919,-4.69,-1.57,1.82,-0.34,1.07,1.27,
15:15:41:920,-4.76,-1.59,2.11,-0.34,1.07,1.27,
15:15:41:924,-4.71,-1.64,2.33,-0.34,1.07,1.27,
15:15:41:925,-4.71,-1.64,2.33,-0.33,1.10,1.32,
15:15:41:929,-4.71,-1.64,2.33,-0.31,1.09,1.38,
15:15:41:930,-4.53,-1.75,2.47,-0.31,1.09,1.38,
15:15:41:934,-4.53,-1.75,2.47,-0.29,1.06,1.43,
15:15:41:934,-4.26,-1.86,2.46,-0.29,1.06,1.43,
15:15:41:939,-3.84,-2.01,2.35,-0.29,1.06,1.43,
15:15:41:940,-3.84,-2.01,2.35,-0.26,1.02,1.47,
15:15:41:944,-3.41,-2.14,2.18,-0.26,1.02,1.47,
15:15:41:945,-3.41,-2.14,2.18,-0.24,0.97,1.51,
15:15:41:948,-3.41,-2.14,2.18,-0.22,0.92,1.52,
15:15:41:949,-3.08,-2.26,1.87,-0.22,0.92,1.52,
15:15:41:953,-2.74,-2.48,1.42,-0.22,0.92,1.52,
15:15:41:953,-2.74,-2.48,1.42,-0.20,0.90,1.53,
15:15:41:958,-2.74,-2.48,1.42,-0.20,0.90,1.52,
15:15:41:959,-2.44,-2.74,1.04,-0.20,0.90,1.52,
15:15:41:963,-2.15,-2.91,0.90,-0.20,0.90,1.52,
15:15:41:964,-2.15,-2.91,0.90,-0.22,0.91,1.51,
15:15:41:968,-2.15,-2.91,0.90,-0.24,0.94,1.48,
15:15:41:968,-1.96,-2.96,0.86,-0.24,0.94,1.48,
15:15:41:972,-1.96,-2.96,0.86,-0.27,0.95,1.46,
15:15:41:973,-1.97,-2.88,0.97,-0.27,0.95,1.46,
15:15:41:978,-1.97,-2.88,0.97,-0.29,0.97,1.46,
15:15:41:979,-2.00,-2.71,1.08,-0.29,0.97,1.46,
15:15:41:983,-2.00,-2.71,1.08,-0.31,0.97,1.47,
15:15:41:984,-1.88,-2.51,1.27,-0.31,0.97,1.47,
15:15:41:988,-1.88,-2.51,1.27,-0.33,0.96,1.48,
15:15:41:988,-1.70,-2.30,1.49,-0.33,0.96,1.48,
15:15:41:992,-1.70,-2.30,1.49,-0.34,0.92,1.49,
15:15:41:993,-1.47,-2.14,1.74,-0.34,0.92,1.49,
15:15:41:997,-1.16,-2.01,1.94,-0.34,0.92,1.49,
15:15:41:998,-1.16,-2.01,1.94,-0.34,0.87,1.49,
15:15:42:002,-1.16,-2.01,1.94,-0.33,0.80,1.49,
15:15:42:004,-0.84,-1.89,2.13,-0.33,0.80,1.49,
15:15:42:007,-0.44,-1.78,2.20,-0.33,0.80,1.49,
15:15:42:008,-0.44,-1.78,2.20,-0.31,0.72,1.47,
15:15:42:012,0.17,-1.74,2.27,-0.31,0.72,1.47,
15:15:42:013,0.17,-1.74,2.27,-0.28,0.63,1.44,
15:15:42:021,0.17,-1.74,2.27,-0.24,0.55,1.38,
15:15:42:025,0.70,-1.63,2.17,-0.24,0.55,1.38,
15:15:42:027,0.70,-1.63,2.17,-0.19,0.48,1.31,
15:15:42:028,1.14,-1.55,2.12,-0.19,0.48,1.31,
15:15:42:029,1.14,-1.55,2.12,-0.13,0.45,1.22,
15:15:42:031,1.38,-1.40,1.99,-0.13,0.45,1.22,
15:15:42:036,1.38,-1.40,1.99,-0.06,0.43,1.14,
15:15:42:038,1.50,-1.22,1.87,-0.06,0.43,1.14,
15:15:42:039,1.50,-1.22,1.87,0.00,0.43,1.07,
15:15:42:041,1.21,-0.90,1.74,0.00,0.43,1.07,
15:15:42:093,1.21,-0.90,1.74,0.07,0.44,1.03,
15:15:42:094,0.67,-0.62,1.49,0.07,0.44,1.03,
15:15:42:095,0.67,-0.62,1.49,0.14,0.46,1.03,
15:15:42:096,0.31,-0.41,1.19,0.14,0.46,1.03,
15:15:42:097,0.31,-0.41,1.19,0.20,0.49,1.06,
15:15:42:097,0.18,-0.15,0.99,0.20,0.49,1.06,
15:15:42:098,0.24,0.11,0.91,0.20,0.49,1.06,
15:15:42:099,0.24,0.11,0.91,0.26,0.52,1.12,
15:15:42:099,0.43,0.35,0.76,0.26,0.52,1.12,
15:15:42:099,0.43,0.35,0.76,0.31,0.54,1.18,
15:15:42:100,0.43,0.35,0.76,0.37,0.54,1.23,
15:15:42:100,0.71,0.56,0.59,0.37,0.54,1.23,
15:15:42:101,0.71,0.56,0.59,0.41,0.53,1.28,
15:15:42:101,1.12,0.78,0.44,0.41,0.53,1.28,
15:15:42:101,1.12,0.78,0.44,0.46,0.50,1.31,
15:15:42:102,1.58,1.04,0.29,0.46,0.50,1.31,
15:15:42:103,1.58,1.04,0.29,0.50,0.46,1.31,
15:15:42:104,2.11,1.26,0.04,0.50,0.46,1.31,
15:15:42:104,2.61,1.41,-0.11,0.50,0.46,1.31,
15:15:42:104,2.61,1.41,-0.11,0.53,0.41,1.28,
15:15:42:105,2.61,1.41,-0.11,0.57,0.38,1.23,
15:15:42:105,2.97,1.62,-0.15,0.57,0.38,1.23,
15:15:42:106,2.97,1.62,-0.15,0.62,0.36,1.16,
15:15:42:106,3.26,1.88,-0.12,0.62,0.36,1.16,
15:15:42:107,3.26,1.88,-0.12,0.67,0.35,1.09,
15:15:42:107,3.67,2.04,-0.21,0.67,0.35,1.09,
15:15:42:108,3.91,2.25,-0.40,0.67,0.35,1.09,
15:15:42:108,3.91,2.25,-0.40,0.72,0.35,1.00,
15:15:42:109,3.91,2.25,-0.40,0.77,0.37,0.92,
15:15:42:109,4.01,2.48,-0.74,0.77,0.37,0.92,
15:15:42:113,4.01,2.48,-0.74,0.82,0.44,0.84,
15:15:42:114,4.02,2.71,-1.14,0.82,0.44,0.84,
15:15:42:118,4.02,2.71,-1.14,0.86,0.54,0.78,
15:15:42:118,4.07,2.92,-1.53,0.86,0.54,0.78,
15:15:42:123,4.07,2.92,-1.53,0.88,0.67,0.72,
15:15:42:124,4.09,3.09,-1.84,0.88,0.67,0.72,
15:15:42:128,4.08,3.24,-2.15,0.88,0.67,0.72,
15:15:42:129,4.08,3.24,-2.15,0.88,0.82,0.66,
15:15:42:132,4.05,3.31,-2.34,0.88,0.82,0.66,
15:15:42:133,4.05,3.31,-2.34,0.88,0.97,0.61,
15:15:42:137,3.90,3.36,-2.49,0.88,0.97,0.61,
15:15:42:138,3.90,3.36,-2.49,0.86,1.11,0.56,
15:15:42:142,3.90,3.36,-2.49,0.84,1.23,0.52,
15:15:42:143,3.78,3.42,-2.60,0.84,1.23,0.52,
15:15:42:147,3.78,3.42,-2.60,0.81,1.33,0.47,
15:15:42:148,3.61,3.48,-2.70,0.81,1.33,0.47,
15:15:42:152,3.61,3.48,-2.70,0.76,1.40,0.43,
15:15:42:153,3.43,3.58,-2.85,0.76,1.40,0.43,
15:15:42:157,3.43,3.58,-2.85,0.72,1.45,0.40,
15:15:42:158,3.37,3.60,-2.98,0.72,1.45,0.40,
15:15:42:162,3.37,3.60,-2.98,0.66,1.48,0.36,
15:15:42:163,3.37,3.52,-3.08,0.66,1.48,0.36,
15:15:42:167,3.39,3.50,-2.95,0.66,1.48,0.36,
15:15:42:168,3.39,3.50,-2.95,0.59,1.49,0.31,
15:15:42:172,3.39,3.50,-2.95,0.51,1.47,0.27,
15:15:42:173,3.35,3.60,-2.84,0.51,1.47,0.27,
15:15:42:177,3.35,3.60,-2.84,0.44,1.44,0.22,
15:15:42:178,3.20,3.69,-2.94,0.44,1.44,0.22,
15:15:42:181,3.00,3.72,-3.09,0.44,1.44,0.22,
15:15:42:182,3.00,3.72,-3.09,0.36,1.41,0.19,
15:15:42:186,3.00,3.72,-3.09,0.28,1.40,0.18,
15:15:42:188,2.79,3.72,-3.15,0.28,1.40,0.18,
15:15:42:192,2.79,3.72,-3.15,0.20,1.40,0.18,
15:15:42:193,2.56,3.73,-3.18,0.20,1.40,0.18,
15:15:42:197,2.44,3.71,-3.05,0.20,1.40,0.18,
15:15:42:198,2.44,3.71,-3.05,0.10,1.41,0.19,
15:15:42:202,2.44,3.71,-3.05,0.01,1.42,0.22,
15:15:42:203,2.35,3.63,-2.84,0.01,1.42,0.22,
15:15:42:205,2.35,3.40,-2.55,0.01,1.42,0.22,
15:15:42:206,2.35,3.40,-2.55,-0.08,1.43,0.24,
15:15:42:212,2.35,3.40,-2.55,-0.17,1.44,0.27,
15:15:42:213,2.39,3.10,-2.19,-0.17,1.44,0.27,
15:15:42:215,2.44,2.82,-1.78,-0.17,1.44,0.27,
15:15:42:216,2.44,2.82,-1.78,-0.24,1.45,0.29,
15:15:42:220,2.44,2.82,-1.78,-0.29,1.47,0.30,
15:15:42:221,2.51,2.60,-1.34,-0.29,1.47,0.30,
15:15:42:227,2.51,2.60,-1.34,-0.33,1.48,0.30,
15:15:42:228,2.56,2.38,-0.91,-0.33,1.48,0.30,
15:15:42:230,2.59,2.15,-0.55,-0.33,1.48,0.30,
15:15:42:230,2.59,2.15,-0.55,-0.35,1.49,0.30,
15:15:42:237,2.61,1.80,-0.21,-0.35,1.49,0.30,
15:15:42:239,2.61,1.80,-0.21,-0.35,1.49,0.29,
15:15:42:241,2.61,1.80,-0.21,-0.35,1.49,0.28,
15:15:42:242,2.63,1.44,0.18,-0.35,1.49,0.28,
15:15:42:245,2.63,1.44,0.18,-0.33,1.49,0.28,
15:15:42:247,2.59,1.07,0.53,-0.33,1.49,0.28,
15:15:42:251,2.59,1.07,0.53,-0.30,1.48,0.27,
15:15:42:253,2.41,0.76,0.86,-0.30,1.48,0.27,
15:15:42:256,2.41,0.76,0.86,-0.26,1.46,0.28,
15:15:42:259,2.29,0.46,1.15,-0.26,1.46,0.28,
15:15:42:260,2.24,0.23,1.39,-0.26,1.46,0.28,
15:15:42:262,2.24,0.23,1.39,-0.21,1.43,0.29,
15:15:42:266,2.24,0.23,1.39,-0.15,1.37,0.31,
15:15:42:269,2.31,0.05,1.58,-0.15,1.37,0.31,
15:15:42:270,2.32,-0.19,1.61,-0.15,1.37,0.31,
15:15:42:271,2.32,-0.19,1.61,-0.09,1.30,0.33,
15:15:42:278,2.32,-0.19,1.61,-0.03,1.22,0.36,
15:15:42:279,2.24,-0.46,1.61,-0.03,1.22,0.36,
15:15:42:279,2.39,-0.36,1.55,-0.03,1.22,0.36,
15:15:42:280,2.39,-0.36,1.55,0.03,1.14,0.39,
15:15:42:319,2.39,-0.36,1.55,0.08,1.08,0.41,
15:15:42:319,1.99,-0.59,1.32,0.08,1.08,0.41,
15:15:42:320,1.99,-0.59,1.32,0.12,1.02,0.46,
15:15:42:320,2.16,-0.97,1.26,0.12,1.02,0.46,
15:15:42:321,2.16,-0.97,1.26,0.16,0.93,0.51,
15:15:42:321,2.48,-1.13,1.26,0.16,0.93,0.51,
15:15:42:322,2.69,-1.19,0.98,0.16,0.93,0.51,
15:15:42:323,2.69,-1.19,0.98,0.20,0.83,0.55,
15:15:42:324,2.69,-1.19,0.98,0.22,0.73,0.57,
15:15:42:324,2.90,-1.33,0.53,0.22,0.73,0.57,
15:15:42:324,2.90,-1.33,0.53,0.23,0.66,0.58,
15:15:42:325,3.15,-1.57,0.12,0.23,0.66,0.58,
15:15:42:325,3.15,-1.57,0.12,0.23,0.59,0.58,
15:15:42:325,3.50,-1.77,-0.09,0.23,0.59,0.58,
15:15:42:326,3.50,-1.77,-0.09,0.23,0.53,0.56,
15:15:42:327,4.18,-1.64,-0.25,0.23,0.53,0.56,
15:15:42:327,4.18,-1.64,-0.25,0.23,0.49,0.52,
15:15:42:328,4.46,-1.63,-0.68,0.23,0.49,0.52,
15:15:42:328,4.32,-2.13,-1.17,0.23,0.49,0.52,
15:15:42:328,4.32,-2.13,-1.17,0.21,0.48,0.48,
15:15:42:332,4.32,-2.13,-1.17,0.18,0.47,0.46,
15:15:42:332,4.46,-2.53,-1.42,0.18,0.47,0.46,
15:15:42:336,4.46,-2.53,-1.42,0.13,0.48,0.44,
15:15:42:337,4.59,-2.83,-1.41,0.13,0.48,0.44,
15:15:42:341,4.59,-2.83,-1.41,0.09,0.51,0.43,
15:15:42:342,4.65,-3.09,-1.10,0.09,0.51,0.43,
15:15:42:346,4.65,-3.09,-1.10,0.05,0.53,0.43,
15:15:42:347,4.72,-3.32,-0.79,0.05,0.53,0.43,
15:15:42:351,4.74,-3.53,-0.57,0.05,0.53,0.43,
15:15:42:352,4.74,-3.53,-0.57,0.03,0.53,0.44,
15:15:42:356,4.74,-3.53,-0.57,0.02,0.52,0.45,
15:15:42:357,4.80,-3.72,-0.36,0.02,0.52,0.45,
15:15:42:361,4.80,-3.72,-0.36,0.02,0.50,0.45,
15:15:42:362,5.02,-3.86,-0.18,0.02,0.50,0.45,
15:15:42:366,5.25,-3.81,-0.11,0.02,0.50,0.45,
15:15:42:367,5.25,-3.81,-0.11,0.02,0.48,0.43,
15:15:42:371,5.25,-3.81,-0.11,0.03,0.46,0.40,
15:15:42:372,5.32,-3.64,-0.14,0.03,0.46,0.40,
15:15:42:376,5.22,-3.52,-0.18,0.03,0.46,0.40,
15:15:42:377,5.22,-3.52,-0.18,0.04,0.45,0.36,
15:15:42:380,5.13,-3.47,-0.25,0.04,0.45,0.36,
15:15:42:381,5.13,-3.47,-0.25,0.05,0.44,0.33,
15:15:42:385,5.13,-3.47,-0.25,0.04,0.43,0.30,
15:15:42:386,5.13,-3.46,-0.27,0.04,0.43,0.30,
15:15:42:390,5.13,-3.46,-0.27,0.03,0.41,0.28,
15:15:42:391,5.30,-3.49,-0.25,0.03,0.41,0.28,
15:15:42:396,5.30,-3.49,-0.25,0.01,0.37,0.25,
15:15:42:397,5.38,-3.53,-0.43,0.01,0.37,0.25,
15:15:42:400,5.33,-3.63,-0.72,0.01,0.37,0.25,
15:15:42:401,5.33,-3.63,-0.72,-0.03,0.35,0.21,
15:15:42:405,5.33,-3.63,-0.72,-0.07,0.36,0.17,
15:15:42:405,5.36,-3.81,-0.76,-0.07,0.36,0.17,
15:15:42:409,5.48,-3.97,-0.47,-0.07,0.36,0.17,
15:15:42:411,5.48,-3.97,-0.47,-0.12,0.37,0.12,
15:15:42:415,5.48,-3.97,-0.47,-0.15,0.40,0.05,
15:15:42:416,5.67,-4.23,-0.20,-0.15,0.40,0.05,
15:15:42:419,5.67,-4.23,-0.20,-0.17,0.42,-0.04,
15:15:42:419,5.71,-4.50,-0.05,-0.17,0.42,-0.04,
15:15:42:424,5.71,-4.50,-0.05,-0.18,0.45,-0.13,
15:15:42:425,5.54,-4.67,0.26,-0.18,0.45,-0.13,
15:15:42:429,5.54,-4.67,0.26,-0.17,0.47,-0.22,
15:15:42:430,5.27,-4.66,0.68,-0.17,0.47,-0.22,
15:15:42:434,5.27,-4.66,0.68,-0.13,0.47,-0.28,
15:15:42:434,4.99,-4.53,1.00,-0.13,0.47,-0.28,
15:15:42:439,4.99,-4.53,1.00,-0.07,0.45,-0.33,
15:15:42:440,4.75,-4.30,1.12,-0.07,0.45,-0.33,
15:15:42:443,4.75,-4.30,1.12,-0.02,0.42,-0.36,
15:15:42:444,4.61,-4.06,1.12,-0.02,0.42,-0.36,
15:15:42:448,4.61,-3.79,1.05,-0.02,0.42,-0.36,
15:15:42:449,4.61,-3.79,1.05,0.03,0.39,-0.40,
15:15:42:453,4.61,-3.79,1.05,0.07,0.35,-0.43,
15:15:42:454,4.69,-3.59,0.81,0.07,0.35,-0.43,
15:15:42:460,4.69,-3.59,0.81,0.10,0.34,-0.48,
15:15:42:464,5.11,-3.38,0.61,0.10,0.34,-0.48,
15:15:42:466,5.11,-3.38,0.61,0.13,0.34,-0.54,
15:15:42:468,4.99,-3.07,0.79,0.13,0.34,-0.54,
15:15:42:471,4.99,-3.07,0.79,0.17,0.34,-0.60,
15:15:42:473,4.68,-2.84,0.55,0.17,0.34,-0.60,
15:15:42:475,4.68,-2.84,0.55,0.20,0.35,-0.66,
15:15:42:476,4.47,-2.67,0.54,0.20,0.35,-0.66,
15:15:42:479,4.14,-2.52,0.41,0.20,0.35,-0.66,
15:15:42:482,4.14,-2.52,0.41,0.22,0.35,-0.70,
15:15:42:485,3.82,-2.40,0.39,0.22,0.35,-0.70,
15:15:42:490,3.82,-2.40,0.39,0.24,0.34,-0.73,
15:15:42:493,3.53,-2.38,0.36,0.24,0.34,-0.73,
15:15:42:495,3.53,-2.38,0.36,0.25,0.32,-0.76,
15:15:42:498,3.53,-2.38,0.36,0.26,0.27,-0.77,
15:15:42:499,3.17,-2.50,0.31,0.26,0.27,-0.77,
15:15:42:499,3.17,-2.50,0.31,0.24,0.19,-0.78,
15:15:42:499,2.78,-2.71,0.31,0.24,0.19,-0.78,
15:15:42:502,2.78,-2.71,0.31,0.21,0.06,-0.78,
15:15:42:504,2.42,-3.04,0.32,0.21,0.06,-0.78,
15:15:42:509,2.09,-3.35,0.42,0.21,0.06,-0.78,
15:15:42:510,2.09,-3.35,0.42,0.18,-0.11,-0.77,
15:15:42:512,2.09,-3.35,0.42,0.15,-0.31,-0.74,
15:15:42:512,1.90,-3.58,0.52,0.15,-0.31,-0.74,
15:15:42:519,1.90,-3.58,0.52,0.12,-0.53,-0.71,
15:15:42:521,1.98,-3.70,0.61,0.12,-0.53,-0.71,
15:15:42:522,2.29,-3.76,0.65,0.12,-0.53,-0.71,
15:15:42:522,2.29,-3.76,0.65,0.11,-0.77,-0.69,
15:15:42:556,2.68,-3.75,0.52,0.11,-0.77,-0.69,
15:15:42:557,2.68,-3.75,0.52,0.12,-1.01,-0.67,
15:15:42:557,3.14,-3.63,0.11,0.12,-1.01,-0.67,
15:15:42:558,3.14,-3.63,0.11,0.13,-1.23,-0.68,
15:15:42:558,3.14,-3.63,0.11,0.14,-1.40,-0.69,
15:15:42:559,3.63,-3.33,-0.35,0.14,-1.40,-0.69,
15:15:42:560,4.24,-3.00,-0.70,0.14,-1.40,-0.69,
15:15:42:560,4.24,-3.00,-0.70,0.13,-1.50,-0.74,
15:15:42:560,4.68,-2.58,-1.00,0.13,-1.50,-0.74,
15:15:42:561,4.68,-2.58,-1.00,0.11,-1.54,-0.80,
15:15:42:561,4.97,-2.18,-1.10,0.11,-1.54,-0.80,
15:15:42:562,4.97,-2.18,-1.10,0.07,-1.53,-0.88,
15:15:42:562,5.13,-1.79,-1.21,0.07,-1.53,-0.88,
15:15:42:563,5.13,-1.79,-1.21,0.02,-1.47,-0.98,
15:15:42:563,5.09,-1.41,-1.34,0.02,-1.47,-0.98,
15:15:42:564,5.09,-1.41,-1.34,-0.04,-1.38,-1.09,
15:15:42:565,4.88,-1.11,-1.43,-0.04,-1.38,-1.09,
15:15:42:565,4.88,-1.11,-1.43,-0.11,-1.25,-1.19,
15:15:42:569,4.47,-0.91,-1.30,-0.11,-1.25,-1.19,
15:15:42:570,4.47,-0.91,-1.30,-0.18,-1.09,-1.29,
15:15:42:574,4.47,-0.91,-1.30,-0.25,-0.92,-1.38,
15:15:42:575,3.97,-0.79,-0.95,-0.25,-0.92,-1.38,
15:15:42:579,3.97,-0.79,-0.95,-0.31,-0.76,-1.45,
15:15:42:580,3.35,-0.73,-0.54,-0.31,-0.76,-1.45,
15:15:42:584,3.35,-0.73,-0.54,-0.36,-0.62,-1.49,
15:15:42:585,2.69,-0.69,-0.18,-0.36,-0.62,-1.49,
15:15:42:589,2.69,-0.69,-0.18,-0.39,-0.50,-1.51,
15:15:42:590,2.12,-0.62,0.23,-0.39,-0.50,-1.51,
15:15:42:594,1.68,-0.53,0.59,-0.39,-0.50,-1.51,
15:15:42:595,1.68,-0.53,0.59,-0.42,-0.41,-1.52,
15:15:42:598,1.20,-0.45,0.90,-0.42,-0.41,-1.52,
15:15:42:599,1.20,-0.45,0.90,-0.42,-0.33,-1.53,
15:15:42:603,1.20,-0.45,0.90,-0.42,-0.29,-1.54,
15:15:42:604,0.83,-0.40,1.23,-0.42,-0.29,-1.54,
15:15:42:608,0.50,-0.32,1.51,-0.42,-0.29,-1.54,
15:15:42:609,0.50,-0.32,1.51,-0.41,-0.28,-1.54,
15:15:42:614,0.50,-0.32,1.51,-0.40,-0.30,-1.54,
15:15:42:614,0.23,-0.22,1.76,-0.40,-0.30,-1.54,
15:15:42:618,-0.07,-0.12,1.93,-0.40,-0.30,-1.54,
15:15:42:619,-0.07,-0.12,1.93,-0.38,-0.34,-1.54,
15:15:42:623,-0.34,0.04,2.07,-0.38,-0.34,-1.54,
15:15:42:624,-0.34,0.04,2.07,-0.37,-0.41,-1.53,
15:15:42:628,-0.34,0.04,2.07,-0.34,-0.49,-1.51,
15:15:42:629,-0.47,0.20,2.18,-0.34,-0.49,-1.51,
15:15:42:633,-0.53,0.30,2.22,-0.34,-0.49,-1.51,
15:15:42:634,-0.53,0.30,2.22,-0.30,-0.58,-1.50,
15:15:42:638,-0.53,0.30,2.22,-0.26,-0.68,-1.48,
15:15:42:639,-0.50,0.37,2.29,-0.26,-0.68,-1.48,
15:15:42:643,-0.50,0.37,2.29,-0.20,-0.79,-1.47,
15:15:42:643,-0.45,0.57,2.29,-0.20,-0.79,-1.47,
15:15:42:647,-0.58,0.80,2.16,-0.20,-0.79,-1.47,
15:15:42:648,-0.58,0.80,2.16,-0.13,-0.89,-1.46,
15:15:42:652,-0.57,1.06,1.86,-0.13,-0.89,-1.46,
15:15:42:653,-0.57,1.06,1.86,-0.07,-0.98,-1.46,
15:15:42:657,-0.61,1.26,1.56,-0.07,-0.98,-1.46,
15:15:42:659,-0.61,1.26,1.56,-0.01,-1.06,-1.45,
15:15:42:663,-0.61,1.26,1.56,0.03,-1.12,-1.45,
15:15:42:664,-0.69,1.41,1.27,0.03,-1.12,-1.45,
15:15:42:667,-0.73,1.46,0.90,0.03,-1.12,-1.45,
15:15:42:668,-0.73,1.46,0.90,0.06,-1.18,-1.45,
15:15:42:671,-0.70,1.39,0.50,0.06,-1.18,-1.45,
15:15:42:672,-0.70,1.39,0.50,0.07,-1.20,-1.46,
15:15:42:679,-0.70,1.39,0.50,0.08,-1.21,-1.48,
15:15:42:679,-0.75,1.34,0.43,0.08,-1.21,-1.48,
15:15:42:681,-0.75,1.34,0.43,0.07,-1.23,-1.51,
15:15:42:682,-0.65,1.45,0.64,0.07,-1.23,-1.51,
15:15:42:688,-0.65,1.45,0.64,0.07,-1.25,-1.54,
15:15:42:689,-0.75,1.67,0.61,0.07,-1.25,-1.54,
15:15:42:691,-1.01,1.86,0.58,0.07,-1.25,-1.54,
15:15:42:692,-1.01,1.86,0.58,0.08,-1.27,-1.57,
15:15:42:699,-1.01,1.86,0.58,0.08,-1.29,-1.59,
15:15:42:700,-1.25,1.84,0.60,0.08,-1.29,-1.59,
15:15:42:701,-1.68,1.85,0.54,0.08,-1.29,-1.59,
15:15:42:701,-1.68,1.85,0.54,0.09,-1.31,-1.59,
15:15:42:706,-1.68,1.85,0.54,0.10,-1.28,-1.58,
15:15:42:707,-2.19,1.89,0.58,0.10,-1.28,-1.58,
15:15:42:713,-2.72,1.96,0.56,0.10,-1.28,-1.58,
15:15:42:714,-2.72,1.96,0.56,0.11,-1.24,-1.55,
15:15:42:715,-2.72,1.96,0.56,0.13,-1.17,-1.48,
15:15:42:716,-3.06,2.06,0.64,0.13,-1.17,-1.48,
15:15:42:720,-3.06,2.06,0.64,0.14,-1.11,-1.40,
15:15:42:722,-3.20,2.12,0.74,0.14,-1.11,-1.40,
15:15:42:726,-3.20,2.12,0.74,0.17,-1.05,-1.31,
15:15:42:727,-3.19,2.16,0.84,0.17,-1.05,-1.31,
15:15:42:732,-3.19,2.16,0.84,0.19,-1.00,-1.24,
15:15:42:734,-3.16,2.15,0.89,0.19,-1.00,-1.24,
15:15:42:735,-3.16,2.15,0.89,0.21,-0.98,-1.18,
15:15:42:736,-3.13,2.09,0.83,0.21,-0.98,-1.18,
15:15:42:743,-3.03,2.05,0.80,0.21,-0.98,-1.18,
15:15:42:745,-3.03,2.05,0.80,0.22,-0.97,-1.14,
15:15:42:745,-2.94,1.99,0.73,0.22,-0.97,-1.14,
15:15:42:746,-2.94,1.99,0.73,0.23,-0.98,-1.12,
15:15:42:752,-2.86,1.98,0.69,0.23,-0.98,-1.12,
15:15:42:754,-2.86,1.98,0.69,0.22,-1.01,-1.12,
15:15:42:755,-2.86,1.98,0.69,0.21,-1.06,-1.13,
15:15:42:756,-2.78,1.97,0.67,0.21,-1.06,-1.13,
15:15:42:760,-2.78,1.97,0.67,0.20,-1.11,-1.16,
15:15:42:761,-2.75,1.98,0.48,0.20,-1.11,-1.16,
15:15:42:765,-2.87,2.03,0.36,0.20,-1.11,-1.16,
15:15:42:766,-2.87,2.03,0.36,0.17,-1.14,-1.19,
15:15:42:824,-3.03,2.00,0.22,0.17,-1.14,-1.19,
15:15:42:824,-3.03,2.00,0.22,0.14,-1.16,-1.21,
15:15:42:825,-3.03,2.00,0.22,0.10,-1.17,-1.23,
15:15:42:826,-3.20,1.95,0.14,0.10,-1.17,-1.23,
15:15:42:827,-3.20,1.95,0.14,0.06,-1.17,-1.22,
15:15:42:828,-3.42,1.89,0.11,0.06,-1.17,-1.22,
15:15:42:828,-3.42,1.89,0.11,0.03,-1.15,-1.21,
15:15:42:829,-3.61,1.73,0.16,0.03,-1.15,-1.21,
15:15:42:830,-3.61,1.73,0.16,-0.01,-1.12,-1.19,
15:15:42:831,-3.78,1.62,0.19,-0.01,-1.12,-1.19,
15:15:42:833,-3.78,1.62,0.19,-0.04,-1.10,-1.17,
15:15:42:834,-3.87,1.47,0.22,-0.04,-1.10,-1.17,
15:15:42:834,-3.96,1.37,0.29,-0.04,-1.10,-1.17,
15:15:42:835,-3.96,1.37,0.29,-0.06,-1.08,-1.14,
15:15:42:837,-3.96,1.37,0.29,-0.09,-1.06,-1.11,
15:15:42:837,-4.03,1.24,0.32,-0.09,-1.06,-1.11,
15:15:42:838,-4.03,1.24,0.32,-0.11,-1.05,-1.08,
15:15:42:839,-4.10,1.10,0.31,-0.11,-1.05,-1.08,
15:15:42:839,-4.10,1.10,0.31,-0.14,-1.04,-1.04,
15:15:42:840,-4.27,0.86,0.05,-0.14,-1.04,-1.04,
15:15:42:841,-4.27,0.86,0.05,-0.18,-1.00,-1.01,
15:15:42:842,-4.34,0.51,0.15,-0.18,-1.00,-1.01,
15:15:42:842,-4.34,0.51,0.15,-0.22,-0.97,-0.97,
15:15:42:843,-4.54,0.31,0.41,-0.22,-0.97,-0.97,
15:15:42:844,-4.54,0.31,0.41,-0.26,-0.93,-0.93,
15:15:42:844,-4.78,0.16,0.74,-0.26,-0.93,-0.93,
15:15:42:845,-4.78,0.16,0.74,-0.29,-0.90,-0.88,
15:15:42:846,-4.87,0.03,1.16,-0.29,-0.90,-0.88,
15:15:42:847,-4.87,0.03,1.16,-0.30,-0.88,-0.83,
15:15:42:848,-4.80,-0.08,1.54,-0.30,-0.88,-0.83,
15:15:42:848,-4.75,-0.23,1.81,-0.30,-0.88,-0.83,
15:15:42:849,-4.75,-0.23,1.81,-0.30,-0.87,-0.77,
15:15:42:849,-4.75,-0.23,1.81,-0.30,-0.88,-0.72,
15:15:42:849,-4.86,-0.41,1.87,-0.30,-0.88,-0.72,
15:15:42:852,-4.86,-0.41,1.87,-0.29,-0.87,-0.68,
15:15:42:853,-4.94,-0.56,1.85,-0.29,-0.87,-0.68,
15:15:42:860,-4.94,-0.56,1.85,-0.28,-0.86,-0.63,
15:15:42:861,-5.00,-0.69,1.88,-0.28,-0.86,-0.63,
15:15:42:864,-5.03,-0.76,1.90,-0.28,-0.86,-0.63,
15:15:42:865,-5.03,-0.76,1.90,-0.27,-0.85,-0.58,
15:15:42:866,-5.02,-0.84,1.85,-0.27,-0.85,-0.58,
15:15:42:867,-5.02,-0.84,1.85,-0.26,-0.83,-0.54,
15:15:42:874,-5.02,-0.84,1.85,-0.25,-0.81,-0.50,
15:15:42:875,-4.96,-0.91,1.71,-0.25,-0.81,-0.50,
15:15:42:880,-5.08,-1.07,1.52,-0.25,-0.81,-0.50,
15:15:42:881,-5.08,-1.07,1.52,-0.26,-0.78,-0.46,
15:15:42:882,-5.08,-1.07,1.52,-0.28,-0.76,-0.43,
15:15:42:882,-5.06,-1.28,1.46,-0.28,-0.76,-0.43,
15:15:42:885,-5.11,-1.49,1.40,-0.28,-0.76,-0.43,
15:15:42:886,-5.11,-1.49,1.40,-0.30,-0.74,-0.39,
15:15:42:891,-5.11,-1.49,1.40,-0.33,-0.72,-0.36,
15:15:42:892,-5.17,-1.71,1.32,-0.33,-0.72,-0.36,
15:15:42:895,-5.17,-1.71,1.32,-0.36,-0.71,-0.33,
15:15:42:896,-5.27,-1.96,1.19,-0.36,-0.71,-0.33,
15:15:42:900,-5.24,-2.24,1.14,-0.36,-0.71,-0.33,
15:15:42:902,-5.24,-2.24,1.14,-0.39,-0.70,-0.29,
15:15:42:905,-5.24,-2.24,1.14,-0.43,-0.69,-0.26,
15:15:42:910,-5.23,-2.64,1.14,-0.43,-0.69,-0.26,
15:15:42:910,-5.16,-3.01,1.20,-0.43,-0.69,-0.26,
15:15:42:911,-5.16,-3.01,1.20,-0.46,-0.66,-0.23,
15:15:42:914,-5.16,-3.01,1.20,-0.48,-0.63,-0.20,
15:15:42:915,-5.14,-3.26,1.27,-0.48,-0.63,-0.20,
15:15:42:923,-5.30,-3.41,1.21,-0.48,-0.63,-0.20,
15:15:42:924,-5.30,-3.41,1.21,-0.49,-0.58,-0.17,
15:15:42:925,-5.30,-3.41,1.21,-0.49,-0.51,-0.13,
15:15:42:925,-5.48,-3.44,1.11,-0.49,-0.51,-0.13,
15:15:42:930,-5.48,-3.44,1.11,-0.48,-0.40,-0.08,
15:15:42:931,-5.83,-3.54,1.03,-0.48,-0.40,-0.08,
15:15:42:937,-6.01,-3.51,1.23,-0.48,-0.40,-0.08,
15:15:42:938,-6.01,-3.51,1.23,-0.46,-0.26,-0.01,
15:15:42:938,-6.01,-3.51,1.23,-0.42,-0.11,0.06,
15:15:42:938,-6.08,-3.33,1.54,-0.42,-0.11,0.06,
15:15:42:943,-6.08,-3.33,1.54,-0.36,0.03,0.14,
15:15:42:944,-6.14,-3.01,1.78,-0.36,0.03,0.14,
15:15:42:948,-6.11,-2.71,1.90,-0.36,0.03,0.14,
15:15:42:949,-6.11,-2.71,1.90,-0.29,0.15,0.22,
15:15:42:955,-6.11,-2.71,1.90,-0.22,0.27,0.28,
15:15:42:956,-6.00,-2.50,1.88,-0.22,0.27,0.28,
15:15:42:958,-5.88,-2.48,1.65,-0.22,0.27,0.28,
15:15:42:959,-5.88,-2.48,1.65,-0.14,0.36,0.33,
15:15:42:967,-5.89,-2.57,1.26,-0.14,0.36,0.33,
15:15:42:974,-5.89,-2.57,1.26,-0.07,0.45,0.37,
15:15:42:979,-5.89,-2.57,1.26,-0.03,0.53,0.39,
15:15:42:980,-6.01,-2.66,0.82,-0.03,0.53,0.39,
15:15:42:980,-6.01,-2.66,0.82,-0.01,0.62,0.42,
15:15:42:980,-6.11,-2.66,0.52,-0.01,0.62,0.42,
15:15:42:981,-6.11,-2.66,0.52,-0.01,0.69,0.45,
15:15:42:981,-6.25,-2.60,0.43,-0.01,0.69,0.45,
15:15:42:982,-6.25,-2.60,0.43,-0.02,0.74,0.49,
15:15:42:983,-6.40,-2.54,0.42,-0.02,0.74,0.49,
15:15:42:987,-6.53,-2.42,0.44,-0.02,0.74,0.49,
15:15:42:987,-6.53,-2.42,0.44,-0.04,0.76,0.55,
15:15:42:992,-6.53,-2.42,0.44,-0.05,0.76,0.60,
15:15:42:992,-6.62,-2.24,0.37,-0.05,0.76,0.60,
15:15:42:997,-6.62,-2.24,0.37,-0.07,0.74,0.67,
15:15:42:997,-6.58,-2.03,0.31,-0.07,0.74,0.67,
15:15:43:002,-6.58,-2.03,0.31,-0.09,0.71,0.74,
15:15:43:002,-6.39,-1.79,0.12,-0.09,0.71,0.74,
15:15:43:006,-6.16,-1.60,-0.09,-0.09,0.71,0.74,
15:15:43:007,-6.16,-1.60,-0.09,-0.11,0.70,0.80,
15:15:43:039,-6.16,-1.60,-0.09,-0.13,0.70,0.86,
15:15:43:040,-5.94,-1.48,-0.18,-0.13,0.70,0.86,
15:15:43:040,-5.94,-1.48,-0.18,-0.17,0.72,0.90,
15:15:43:041,-5.80,-1.37,-0.18,-0.17,0.72,0.90,
15:15:43:042,-5.59,-1.32,-0.08,-0.17,0.72,0.90,
15:15:43:042,-5.59,-1.32,-0.08,-0.20,0.73,0.95,
15:15:43:043,-5.59,-1.32,-0.08,-0.24,0.74,0.98,
15:15:43:043,-5.45,-1.39,-0.08,-0.24,0.74,0.98,
15:15:43:044,-5.45,-1.39,-0.08,-0.28,0.75,1.02,
15:15:43:044,-5.36,-1.50,-0.06,-0.28,0.75,1.02,
15:15:43:045,-5.25,-1.59,0.05,-0.28,0.75,1.02,
15:15:43:045,-5.25,-1.59,0.05,-0.32,0.76,1.05,
15:15:43:366,-5.19,-1.57,0.05,-0.32,0.76,1.05,
15:15:43:369,-5.14,-1.55,0.06,-0.32,0.76,1.05,
15:15:43:371,-4.89,-1.99,0.17,-0.32,0.76,1.05,
15:15:43:372,-4.64,-2.25,0.27,-0.32,0.76,1.05,
15:15:43:373,-4.32,-2.51,0.26,-0.32,0.76,1.05,
15:15:43:374,-4.10,-2.71,0.23,-0.32,0.76,1.05,
15:15:43:375,-3.89,-2.83,0.38,-0.32,0.76,1.05,
15:15:43:376,-3.66,-2.88,0.61,-0.32,0.76,1.05,
15:15:43:377,-3.40,-2.83,0.89,-0.32,0.76,1.05,
15:15:43:378,-3.21,-2.80,1.15,-0.32,0.76,1.05,
15:15:43:379,-2.97,-2.81,1.35,-0.32,0.76,1.05,
15:15:43:379,-2.77,-2.78,1.63,-0.32,0.76,1.05,
15:15:43:381,-2.59,-2.84,1.75,-0.32,0.76,1.05,
15:15:43:382,-2.31,-2.89,1.97,-0.32,0.76,1.05,
15:15:43:384,-1.98,-2.83,2.13,-0.32,0.76,1.05,
15:15:43:384,-1.74,-2.72,2.28,-0.32,0.76,1.05,
15:15:43:385,-1.43,-2.61,2.40,-0.32,0.76,1.05,
15:15:43:386,-1.13,-2.51,2.46,-0.32,0.76,1.05,
15:15:43:387,-1.05,-2.36,2.46,-0.32,0.76,1.05,
15:15:43:388,-1.08,-2.19,2.32,-0.32,0.76,1.05,
15:15:43:389,-1.08,-1.93,2.06,-0.32,0.76,1.05,
15:15:43:390,-0.99,-1.61,1.85,-0.32,0.76,1.05,
15:15:43:390,-0.69,-1.29,1.69,-0.32,0.76,1.05,
15:15:43:391,-0.28,-0.99,1.60,-0.32,0.76,1.05,
15:15:43:392,0.13,-0.67,1.44,-0.32,0.76,1.05,
15:15:43:393,0.48,-0.37,1.21,-0.32,0.76,1.05,
15:15:43:394,0.69,0.01,1.01,-0.32,0.76,1.05,
15:15:43:395,0.79,0.41,0.86,-0.32,0.76,1.05,
15:15:43:396,0.78,0.84,0.75,-0.32,0.76,1.05,
15:15:43:397,0.79,1.23,0.60,-0.32,0.76,1.05,
15:15:43:398,0.80,1.59,0.41,-0.32,0.76,1.05,
15:15:43:398,0.89,1.90,0.25,-0.32,0.76,1.05,
15:15:43:398,0.98,2.19,0.04,-0.32,0.76,1.05,
15:15:43:399,1.07,2.42,-0.15,-0.32,0.76,1.05,
15:15:43:399,1.22,2.58,-0.25,-0.32,0.76,1.05,
15:15:43:399,1.29,2.76,-0.34,-0.32,0.76,1.05,
15:15:43:400,1.31,2.94,-0.34,-0.32,0.76,1.05,
15:15:43:400,1.32,2.99,-0.46,-0.32,0.76,1.05,
15:15:43:401,1.37,3.03,-0.63,-0.32,0.76,1.05,
15:15:43:401,1.40,3.08,-0.72,-0.32,0.76,1.05,
15:15:43:401,1.54,3.22,-0.79,-0.32,0.76,1.05,
15:15:43:402,1.77,3.31,-1.00,-0.32,0.76,1.05,
15:15:43:402,1.82,3.47,-1.28,-0.32,0.76,1.05,
15:15:43:402,1.71,3.58,-1.69,-0.32,0.76,1.05,
15:15:43:403,1.61,3.64,-1.88,-0.32,0.76,1.05,
15:15:43:403,1.65,3.69,-2.04,-0.32,0.76,1.05,
15:15:43:404,1.71,3.63,-2.12,-0.32,0.76,1.05,
15:15:43:404,1.80,3.47,-2.43,-0.32,0.76,1.05,
15:15:43:404,2.04,3.37,-2.91,-0.32,0.76,1.05,
15:15:43:405,2.40,3.50,-3.46,-0.32,0.76,1.05,
15:15:43:405,3.05,3.15,-4.03,-0.32,0.76,1.05,
15:15:43:405,3.53,2.88,-4.73,-0.32,0.76,1.05,
15:15:43:406,3.69,2.86,-5.29,-0.32,0.76,1.05,
15:15:43:406,3.50,2.96,-5.51,-0.32,0.76,1.05,
15:15:43:407,3.12,2.99,-5.37,-0.32,0.76,1.05,
15:15:43:407,2.64,2.84,-5.09,-0.32,0.76,1.05,
15:15:43:407,2.26,2.45,-4.46,-0.32,0.76,1.05,
15:15:43:408,2.26,2.45,-4.46,-0.36,0.77,1.09,
15:15:43:408,2.26,2.45,-4.46,-0.40,0.76,1.12,
15:15:43:408,2.26,2.45,-4.46,-0.44,0.73,1.16,
15:15:43:409,2.26,2.45,-4.46,-0.49,0.69,1.19,
15:15:43:409,2.26,2.45,-4.46,-0.53,0.67,1.21,
15:15:43:409,2.26,2.45,-4.46,-0.57,0.67,1.24,
15:15:43:410,2.26,2.45,-4.46,-0.60,0.66,1.25,
15:15:43:411,2.26,2.45,-4.46,-0.63,0.66,1.27,
15:15:43:411,2.26,2.45,-4.46,-0.65,0.64,1.28,
15:15:43:412,2.26,2.45,-4.46,-0.65,0.61,1.30,
15:15:43:413,2.26,2.45,-4.46,-0.64,0.56,1.31,
15:15:43:414,2.26,2.45,-4.46,-0.62,0.51,1.31,
15:15:43:415,2.26,2.45,-4.46,-0.59,0.45,1.31,
15:15:43:416,2.26,2.45,-4.46,-0.55,0.39,1.30,
15:15:43:417,2.26,2.45,-4.46,-0.49,0.33,1.28,
15:15:43:417,2.26,2.45,-4.46,-0.43,0.27,1.26,
15:15:43:418,2.26,2.45,-4.46,-0.36,0.20,1.24,
15:15:43:418,2.26,2.45,-4.46,-0.29,0.14,1.22,
15:15:43:419,2.26,2.45,-4.46,-0.21,0.10,1.20,
15:15:43:419,2.26,2.45,-4.46,-0.13,0.06,1.20,
15:15:46:042,2.26,2.45,-4.46,-0.05,0.05,1.21,
15:15:46:043,2.26,2.45,-4.46,0.02,0.06,1.23,
15:15:46:044,2.26,2.45,-4.46,0.10,0.09,1.24,
15:15:46:044,2.26,2.45,-4.46,0.18,0.13,1.24,
15:15:46:045,2.26,2.45,-4.46,0.25,0.18,1.23,
15:15:46:046,2.26,2.45,-4.46,0.32,0.25,1.22,
15:15:46:057,2.26,2.45,-4.46,0.39,0.33,1.19,
15:15:46:059,2.26,2.45,-4.46,0.44,0.41,1.18,
15:15:46:061,2.26,2.45,-4.46,0.49,0.47,1.17,
15:15:46:062,2.26,2.45,-4.46,0.53,0.51,1.16,
15:15:46:063,2.26,2.45,-4.46,0.56,0.54,1.15,
15:15:46:105,2.26,2.45,-4.46,0.59,0.56,1.15,
15:15:46:106,2.26,2.45,-4.46,0.61,0.59,1.13,
15:15:46:106,2.26,2.45,-4.46,0.63,0.59,1.12,
15:15:46:107,2.26,2.45,-4.46,0.64,0.58,1.10,
15:15:46:107,2.26,2.45,-4.46,0.66,0.57,1.07,
15:15:46:108,2.26,2.45,-4.46,0.67,0.56,1.05,
15:15:46:108,2.26,2.45,-4.46,0.70,0.57,1.03,
15:15:46:109,2.26,2.45,-4.46,0.72,0.60,1.01,
15:15:46:109,2.26,2.45,-4.46,0.74,0.62,0.98,
15:15:46:110,2.26,2.45,-4.46,0.77,0.63,0.95,
15:15:46:110,2.26,2.45,-4.46,0.79,0.67,0.91,
15:15:46:110,2.26,2.45,-4.46,0.81,0.75,0.87,
15:15:46:111,2.26,2.45,-4.46,0.80,0.82,0.83,
15:15:46:111,2.26,2.45,-4.46,0.78,0.88,0.81,
15:15:46:111,2.26,2.45,-4.46,0.75,0.93,0.79,
15:15:46:112,2.26,2.45,-4.46,0.70,0.94,0.77,
15:15:46:112,2.26,2.45,-4.46,0.64,0.94,0.74,
15:15:46:112,2.26,2.45,-4.46,0.55,0.93,0.71,
15:15:46:113,2.26,2.45,-4.46,0.43,0.90,0.67,
15:15:46:113,2.26,2.45,-4.46,0.28,0.84,0.60,
15:15:46:114,2.26,2.45,-4.46,0.10,0.79,0.49,
15:15:46:114,2.26,2.45,-4.46,-0.10,0.75,0.37,
15:15:46:115,2.26,2.45,-4.46,-0.30,0.73,0.27,
15:15:46:115,2.26,2.45,-4.46,-0.48,0.76,0.20,
15:15:46:115,2.26,2.45,-4.46,-0.65,0.84,0.16,
15:15:46:116,2.26,2.45,-4.46,-0.78,0.96,0.15,
15:15:46:116,2.26,2.45,-4.46,-0.88,1.10,0.18,
15:15:46:117,2.26,2.45,-4.46,-0.93,1.28,0.25,
15:15:46:117,2.26,2.45,-4.46,-0.93,1.45,0.35,
15:15:46:118,2.26,2.45,-4.46,-0.86,1.59,0.46,
15:15:46:118,2.26,2.45,-4.46,-0.72,1.66,0.55,
15:15:46:119,2.26,2.45,-4.46,-0.53,1.64,0.61,
15:15:46:119,2.26,2.45,-4.46,-0.31,1.59,0.66,
15:15:46:119,2.26,2.45,-4.46,-0.08,1.53,0.71,
15:15:46:120,2.26,2.45,-4.46,0.14,1.48,0.74,
15:15:46:120,2.26,2.45,-4.46,0.32,1.46,0.77,
15:15:46:121,1.63,2.03,-3.45,0.32,1.46,0.77,
15:15:46:121,0.81,1.73,-2.40,0.32,1.46,0.77,
15:15:46:121,0.01,1.30,-1.32,0.32,1.46,0.77,
15:15:46:122,-0.28,0.69,0.25,0.32,1.46,0.77,
15:15:46:122,-0.28,0.69,0.25,0.46,1.48,0.79,
15:15:46:123,0.02,-0.00,1.89,0.46,1.48,0.79,
15:15:46:123,0.05,0.00,1.91,0.46,1.48,0.79,
15:15:46:124,0.08,0.00,1.92,0.46,1.48,0.79,
15:15:46:124,0.12,0.01,1.92,0.46,1.48,0.79,
15:15:46:124,0.16,0.01,1.91,0.46,1.48,0.79,
15:15:46:125,0.19,0.01,1.89,0.46,1.48,0.79,
15:15:46:125,1.10,1.16,0.30,0.46,1.48,0.79,
15:15:46:126,1.10,1.16,0.30,0.56,1.53,0.81,
15:15:46:126,1.22,1.56,-0.72,0.56,1.53,0.81,
15:15:46:126,1.22,1.56,-0.72,0.59,1.63,0.82,
15:15:46:127,1.32,1.69,-1.57,0.59,1.63,0.82,
15:15:46:128,1.32,1.69,-1.57,0.56,1.74,0.82,
15:15:46:128,1.54,1.69,-1.84,0.56,1.74,0.82,
15:15:46:128,1.58,1.69,-1.86,0.56,1.74,0.82,
15:15:46:129,1.63,1.68,-1.88,0.56,1.74,0.82,
15:15:46:129,1.47,1.31,-1.24,0.56,1.74,0.82,
15:15:46:130,1.25,0.88,-0.84,0.56,1.74,0.82,
15:15:46:130,1.16,0.36,-0.45,0.56,1.74,0.82,
15:15:46:130,1.36,0.02,-0.18,0.56,1.74,0.82,
15:15:46:131,1.17,-0.50,0.21,0.56,1.74,0.82,
15:15:46:131,1.38,-1.03,0.64,0.56,1.74,0.82,
15:15:46:132,1.66,-1.48,0.84,0.56,1.74,0.82,
15:15:46:132,2.16,-1.93,0.77,0.56,1.74,0.82,
15:15:46:133,2.73,-2.17,0.57,0.56,1.74,0.82,
15:15:46:133,3.14,-2.32,0.28,0.56,1.74,0.82,
15:15:46:134,3.69,-2.44,-0.03,0.56,1.74,0.82,
15:15:46:134,4.32,-2.52,-0.32,0.56,1.74,0.82,
15:15:46:135,4.90,-2.66,-0.72,0.56,1.74,0.82,
15:15:46:135,5.38,-2.77,-0.98,0.56,1.74,0.82,
15:15:46:135,5.68,-2.87,-1.14,0.56,1.74,0.82,
15:15:46:136,5.85,-3.04,-1.20,0.56,1.74,0.82,
15:15:46:136,5.93,-3.26,-1.14,0.56,1.74,0.82,
15:15:46:137,6.04,-3.40,-0.78,0.56,1.74,0.82,
15:15:46:137,6.15,-3.46,-0.33,0.56,1.74,0.82,
15:15:46:137,6.25,-3.47,-0.04,0.56,1.74,0.82,
15:15:46:138,6.29,-3.50,-0.03,0.56,1.74,0.82,
15:15:46:138,6.30,-3.65,-0.14,0.56,1.74,0.82,
15:15:46:139,6.14,-3.90,-0.26,0.56,1.74,0.82,
15:15:46:139,5.85,-4.19,-0.32,0.56,1.74,0.82,
15:15:46:139,5.50,-4.43,-0.32,0.56,1.74,0.82,
15:15:46:140,5.18,-4.70,-0.21,0.56,1.74,0.82,
15:15:46:140,5.00,-5.03,0.03,0.56,1.74,0.82,
15:15:46:141,4.80,-5.22,0.41,0.56,1.74,0.82,
15:15:46:141,4.81,-5.41,0.78,0.56,1.74,0.82,
15:15:46:141,4.89,-5.48,1.27,0.56,1.74,0.82,
15:15:46:142,4.96,-5.48,1.68,0.56,1.74,0.82,
15:15:46:142,5.09,-5.35,1.98,0.56,1.74,0.82,
15:15:46:143,5.05,-4.99,2.27,0.56,1.74,0.82,
15:15:46:143,4.84,-4.53,2.43,0.56,1.74,0.82,
15:15:46:143,4.48,-4.13,2.54,0.56,1.74,0.82,
15:15:46:144,4.25,-3.89,2.63,0.56,1.74,0.82,
15:15:46:144,4.28,-3.76,2.70,0.56,1.74,0.82,
15:15:46:145,4.49,-3.76,2.66,0.56,1.74,0.82,
15:15:46:145,4.74,-3.87,2.70,0.56,1.74,0.82,
15:15:46:145,4.85,-4.02,2.81,0.56,1.74,0.82,
15:15:46:146,4.81,-4.18,2.66,0.56,1.74,0.82,
15:15:46:146,4.69,-4.22,2.48,0.56,1.74,0.82,
15:15:46:146,4.22,-4.00,2.44,0.56,1.74,0.82,
15:15:46:147,3.66,-3.73,2.40,0.56,1.74,0.82,
15:15:46:171,3.29,-3.49,2.33,0.56,1.74,0.82,
15:15:46:172,3.07,-3.23,2.18,0.56,1.74,0.82,
15:15:46:173,2.92,-2.98,2.11,0.56,1.74,0.82,
15:15:46:173,2.86,-2.72,2.06,0.56,1.74,0.82,
15:15:46:173,2.95,-2.48,2.10,0.56,1.74,0.82,
15:15:46:174,3.09,-2.30,2.07,0.56,1.74,0.82,
15:15:46:174,3.08,-2.11,1.99,0.56,1.74,0.82,
15:15:46:175,2.93,-1.94,1.99,0.56,1.74,0.82,
15:15:46:175,2.68,-1.75,1.85,0.56,1.74,0.82,
15:15:46:175,2.48,-1.58,1.65,0.56,1.74,0.82,
15:15:46:176,2.29,-1.42,1.35,0.56,1.74,0.82,
15:15:46:176,2.11,-1.28,0.97,0.56,1.74,0.82,
15:15:46:177,1.92,-1.06,0.58,0.56,1.74,0.82,
15:15:46:177,1.81,-0.79,0.24,0.56,1.74,0.82,
15:15:46:178,1.63,-0.50,-0.14,0.56,1.74,0.82,
15:15:46:178,1.46,-0.26,-0.52,0.56,1.74,0.82,
15:15:46:178,1.18,-0.07,-0.77,0.56,1.74,0.82,
15:15:46:179,0.82,-0.03,-1.05,0.56,1.74,0.82,
15:15:46:179,0.63,0.01,-1.21,0.56,1.74,0.82,
15:15:46:180,0.54,0.12,-1.11,0.56,1.74,0.82,
15:15:46:180,0.54,0.19,-0.87,0.56,1.74,0.82,
15:15:46:181,0.58,0.27,-0.62,0.56,1.74,0.82,
15:15:46:181,0.61,0.34,-0.34,0.56,1.74,0.82,
15:15:46:181,0.63,0.43,-0.14,0.56,1.74,0.82,
15:15:46:182,0.64,0.48,0.17,0.56,1.74,0.82,
15:15:46:182,0.65,0.48,0.64,0.56,1.74,0.82,
15:15:46:182,0.66,0.59,1.24,0.56,1.74,0.82,
15:15:46:183,0.65,0.80,1.67,0.56,1.74,0.82,
15:15:46:183,0.56,1.05,1.99,0.56,1.74,0.82,
15:15:46:184,0.34,1.40,2.13,0.56,1.74,0.82,
15:15:46:184,0.14,1.85,2.12,0.56,1.74,0.82,
15:15:46:184,-0.08,2.30,2.05,0.56,1.74,0.82,
15:15:46:185,-0.15,2.59,1.89,0.56,1.74,0.82,
15:15:46:185,-0.15,2.84,1.76,0.56,1.74,0.82,
15:15:46:186,-0.29,3.06,1.47,0.56,1.74,0.82,
15:15:46:186,-0.65,3.27,1.15,0.56,1.74,0.82,
15:15:46:187,-1.12,3.42,0.89,0.56,1.74,0.82,
15:15:46:187,-1.41,3.52,0.76,0.56,1.74,0.82,
15:15:46:187,-1.47,3.58,0.52,0.56,1.74,0.82,
15:15:46:188,-1.39,3.64,0.18,0.56,1.74,0.82,
15:15:46:188,-1.31,3.75,-0.22,0.56,1.74,0.82,
15:15:46:189,-1.19,3.88,-0.59,0.56,1.74,0.82,
15:15:46:189,-0.99,3.96,-0.92,0.56,1.74,0.82,
15:15:46:189,-0.73,3.96,-1.34,0.56,1.74,0.82,
15:15:46:190,-0.49,3.90,-1.74,0.56,1.74,0.82,
15:15:46:190,-0.29,3.82,-1.91,0.56,1.74,0.82,
15:15:46:191,-0.10,3.69,-1.86,0.56,1.74,0.82,
15:15:46:191,0.14,3.56,-1.55,0.56,1.74,0.82,
15:15:46:191,0.40,3.31,-1.28,0.56,1.74,0.82,
15:15:46:192,0.45,3.03,-1.01,0.56,1.74,0.82,
15:15:46:192,0.34,2.79,-0.74,0.56,1.74,0.82,
15:15:46:193,0.10,2.58,-0.40,0.56,1.74,0.82,
15:15:46:193,-0.50,2.33,-0.04,0.56,1.74,0.82,
15:15:46:193,-1.06,2.05,0.19,0.56,1.74,0.82,
15:15:46:194,-1.35,1.85,0.32,0.56,1.74,0.82,
15:15:46:194,-1.45,1.74,0.42,0.56,1.74,0.82,
15:15:46:194,-1.35,1.72,0.15,0.56,1.74,0.82,
15:15:46:195,-1.25,1.73,-0.52,0.56,1.74,0.82,
15:15:46:195,-1.25,1.73,-1.33,0.56,1.74,0.82,
15:15:46:196,-1.11,1.84,-2.16,0.56,1.74,0.82,
15:15:46:198,-0.86,2.04,-2.63,0.56,1.74,0.82,
15:15:46:198,-0.62,2.08,-2.84,0.56,1.74,0.82,
15:15:46:199,-0.30,1.80,-2.71,0.56,1.74,0.82,
15:15:46:199,-0.17,1.38,-2.21,0.56,1.74,0.82,
15:15:46:199,-0.37,0.89,-1.73,0.56,1.74,0.82,
15:15:46:217,-0.73,0.44,-1.35,0.56,1.74,0.82,
15:15:46:218,-1.00,0.01,-1.12,0.56,1.74,0.82,
15:15:46:218,-1.45,-0.56,-0.81,0.56,1.74,0.82,
15:15:46:219,-1.88,-1.33,-0.33,0.56,1.74,0.82,
15:15:46:219,-2.42,-2.03,0.46,0.56,1.74,0.82,
15:15:46:219,-2.89,-2.51,1.45,0.56,1.74,0.82,
15:15:46:220,-3.01,-2.58,2.13,0.56,1.74,0.82,
15:15:46:220,-3.57,-2.99,2.41,0.56,1.74,0.82,
15:15:46:220,-3.97,-3.40,2.48,0.56,1.74,0.82,
15:15:46:221,-4.10,-3.82,2.50,0.56,1.74,0.82,
15:15:46:221,-4.23,-4.18,2.35,0.56,1.74,0.82,
15:15:46:221,-4.40,-4.43,2.12,0.56,1.74,0.82,
15:15:46:222,-4.57,-4.62,1.81,0.56,1.74,0.82,
15:15:46:222,-4.89,-4.38,1.76,0.56,1.74,0.82,
15:15:46:222,-4.67,-4.39,1.43,0.56,1.74,0.82,
15:15:46:222,-4.32,-4.70,0.75,0.56,1.74,0.82,
15:15:46:223,-4.37,-4.99,0.37,0.56,1.74,0.82,
15:15:46:223,-4.49,-5.27,0.23,0.56,1.74,0.82,
15:15:46:223,-4.60,-5.37,0.29,0.56,1.74,0.82,
15:15:46:224,-5.07,-5.08,0.66,0.56,1.74,0.82,
15:15:46:224,-5.32,-4.71,0.84,0.56,1.74,0.82,
15:15:46:225,-5.46,-4.39,0.92,0.56,1.74,0.82,
15:15:46:225,-5.58,-4.24,1.08,0.56,1.74,0.82,
15:15:46:226,-5.65,-4.29,1.36,0.56,1.74,0.82,
15:15:46:226,-5.81,-4.48,1.45,0.56,1.74,0.82,
15:15:46:226,-6.18,-4.75,1.43,0.56,1.74,0.82,
15:15:46:227,-6.70,-4.95,1.42,0.56,1.74,0.82,
15:15:46:227,-7.35,-5.04,1.50,0.56,1.74,0.82,
15:15:46:227,-7.98,-4.95,1.58,0.56,1.74,0.82,
15:15:46:228,-8.43,-4.68,1.60,0.56,1.74,0.82,
15:15:46:228,-8.46,-4.30,1.58,0.56,1.74,0.82,
15:15:46:228,-8.17,-3.98,1.48,0.56,1.74,0.82,
15:15:46:229,-7.69,-3.68,1.30,0.56,1.74,0.82,
15:15:46:229,-7.17,-3.41,1.14,0.56,1.74,0.82,
15:15:46:229,-6.74,-3.09,1.08,0.56,1.74,0.82,
15:15:46:258,-6.46,-2.69,1.12,0.56,1.74,0.82,
15:15:46:258,-6.31,-2.24,1.07,0.56,1.74,0.82,
15:15:46:259,-6.12,-1.82,1.01,0.56,1.74,0.82,
15:15:46:259,-5.89,-1.46,0.97,0.56,1.74,0.82,
15:15:46:260,-5.71,-1.26,0.91,0.56,1.74,0.82,
15:15:46:261,-5.49,-1.23,0.80,0.56,1.74,0.82,
15:15:46:261,-5.23,-1.34,0.73,0.56,1.74,0.82,
15:15:46:261,-4.99,-1.49,0.64,0.56,1.74,0.82,
15:15:46:262,-4.78,-1.68,0.54,0.56,1.74,0.82,
15:15:46:262,-4.73,-1.90,0.28,0.56,1.74,0.82,
15:15:46:263,-4.87,-2.09,0.04,0.56,1.74,0.82,
15:15:46:263,-5.06,-2.22,-0.13,0.56,1.74,0.82,
15:15:46:264,-5.22,-2.23,-0.24,0.56,1.74,0.82,
15:15:46:264,-5.11,-2.09,-0.20,0.56,1.74,0.82,
15:15:46:265,-4.95,-1.95,-0.19,0.56,1.74,0.82,
15:15:46:265,-4.67,-1.81,-0.17,0.56,1.74,0.82,
15:15:46:266,-4.35,-1.71,-0.21,0.56,1.74,0.82,
15:15:46:266,-3.87,-1.69,-0.13,0.56,1.74,0.82,
15:15:46:267,-3.23,-1.65,0.17,0.56,1.74,0.82,
15:15:46:267,-2.63,-1.61,0.39,0.56,1.74,0.82,
15:15:46:268,-2.16,-1.52,0.51,0.56,1.74,0.82,
15:15:46:268,-1.77,-1.45,0.51,0.56,1.74,0.82,
15:15:46:269,-1.51,-1.28,0.35,0.56,1.74,0.82,
15:15:46:269,-1.33,-1.10,0.13,0.56,1.74,0.82,
15:15:46:270,-1.11,-0.96,-0.05,0.56,1.74,0.82,
15:15:46:270,-0.89,-0.94,-0.36,0.56,1.74,0.82,
15:15:46:270,-0.64,-0.95,-0.55,0.56,1.74,0.82,
15:15:46:271,-0.47,-0.82,-0.51,0.56,1.74,0.82,
15:15:46:271,-0.25,-0.64,-0.47,0.56,1.74,0.82,
15:15:46:271,-0.10,-0.43,-0.39,0.56,1.74,0.82,
15:15:46:272,-0.15,-0.21,-0.35,0.56,1.74,0.82,
15:15:46:272,-0.41,0.02,-0.24,0.56,1.74,0.82,
15:15:46:273,-0.82,0.23,0.02,0.56,1.74,0.82,
15:15:46:273,-1.14,0.44,0.35,0.56,1.74,0.82,
15:15:46:273,-1.44,0.67,0.76,0.56,1.74,0.82,
15:15:46:274,-2.03,0.91,1.10,0.56,1.74,0.82,
15:15:46:274,-2.67,1.24,1.35,0.56,1.74,0.82,
15:15:46:275,-2.97,1.63,1.58,0.56,1.74,0.82,
15:15:46:275,-2.85,2.04,1.69,0.56,1.74,0.82,
15:15:46:275,-2.49,2.30,1.69,0.56,1.74,0.82,
15:15:46:276,-2.06,2.47,1.72,0.56,1.74,0.82,
15:15:46:276,-1.82,2.67,1.61,0.56,1.74,0.82,
15:15:46:277,-1.74,2.89,1.45,0.56,1.74,0.82,
15:15:46:277,-1.76,3.09,1.25,0.56,1.74,0.82,
15:15:46:277,-1.88,3.28,0.94,0.56,1.74,0.82,
15:15:46:278,-2.05,3.42,0.58,0.56,1.74,0.82,
15:15:46:278,-2.21,3.49,0.18,0.56,1.74,0.82,
15:15:46:278,-2.29,3.55,-0.20,0.56,1.74,0.82,
15:15:46:279,-2.21,3.61,-0.55,0.56,1.74,0.82,
15:15:46:279,-1.86,3.76,-1.09,0.56,1.74,0.82,
15:15:46:280,-1.81,3.74,-1.39,0.56,1.74,0.82,
15:15:46:280,-1.60,3.71,-1.54,0.56,1.74,0.82,
15:15:46:280,-1.39,3.69,-1.54,0.56,1.74,0.82,
15:15:46:281,-1.33,3.68,-1.52,0.56,1.74,0.82,
15:15:46:281,-1.25,3.72,-1.69,0.56,1.74,0.82,
15:15:46:282,-1.11,3.68,-1.81,0.56,1.74,0.82,
15:15:46:282,-0.88,3.66,-1.65,0.56,1.74,0.82,
15:15:46:282,-0.56,3.64,-1.43,0.56,1.74,0.82,
15:15:46:283,-0.25,3.60,-1.25,0.56,1.74,0.82,
15:15:46:283,0.04,3.44,-1.15,0.56,1.74,0.82,
15:15:46:284,0.32,3.30,-1.05,0.56,1.74,0.82,
15:15:46:284,0.55,3.22,-0.89,0.56,1.74,0.82,
15:15:46:284,0.74,3.07,-0.74,0.56,1.74,0.82,
15:15:46:285,0.84,2.84,-0.58,0.56,1.74,0.82,
15:15:46:285,0.87,2.63,-0.35,0.56,1.74,0.82,
15:15:46:286,0.82,2.43,-0.11,0.56,1.74,0.82,
15:15:46:286,0.79,2.24,0.04,0.56,1.74,0.82,
15:15:46:286,0.86,2.12,0.07,0.56,1.74,0.82,
15:15:46:287,1.01,1.92,-0.02,0.56,1.74,0.82,
15:15:46:287,1.07,1.71,-0.09,0.56,1.74,0.82,
15:15:46:287,1.12,1.50,-0.12,0.56,1.74,0.82,
15:15:46:288,1.26,1.28,-0.04,0.56,1.74,0.82,
15:15:46:288,1.42,1.06,0.06,0.56,1.74,0.82,
15:15:46:289,1.62,0.87,0.09,0.56,1.74,0.82,
15:15:46:289,1.93,0.60,0.13,0.56,1.74,0.82,
15:15:46:289,2.27,0.30,0.30,0.56,1.74,0.82,
15:15:46:290,2.52,0.12,0.27,0.56,1.74,0.82,
15:15:46:290,2.83,-0.08,0.25,0.56,1.74,0.82,
15:15:46:291,3.11,-0.34,0.34,0.56,1.74,0.82,
15:15:46:291,3.42,-0.61,0.51,0.56,1.74,0.82,
15:15:46:291,3.74,-0.89,0.76,0.56,1.74,0.82,
15:15:46:292,3.98,-1.11,0.99,0.56,1.74,0.82,
15:15:46:292,4.24,-1.33,1.09,0.56,1.74,0.82,
15:15:46:292,4.57,-1.59,1.15,0.56,1.74,0.82,
15:15:46:293,4.86,-1.86,1.21,0.56,1.74,0.82,
15:15:46:293,5.17,-2.23,1.25,0.56,1.74,0.82,
15:15:46:294,5.68,-2.59,1.25,0.56,1.74,0.82,
15:15:46:294,6.18,-2.94,1.09,0.56,1.74,0.82,
15:15:46:294,6.29,-3.43,0.87,0.56,1.74,0.82,
15:15:46:295,6.55,-3.78,0.71,0.56,1.74,0.82,
15:15:46:295,6.58,-3.90,0.40,0.56,1.74,0.82,
15:15:46:296,6.54,-3.92,0.29,0.56,1.74,0.82,
15:15:46:296,6.57,-3.95,0.27,0.56,1.74,0.82,
15:15:46:296,6.47,-4.04,0.26,0.56,1.74,0.82,
15:15:46:297,6.34,-4.12,0.23,0.56,1.74,0.82,
15:15:46:297,6.35,-4.16,0.38,0.56,1.74,0.82,
15:15:46:298,6.36,-4.22,0.69,0.56,1.74,0.82,
15:15:46:298,6.48,-4.29,1.05,0.56,1.74,0.82,
15:15:46:299,6.58,-4.44,1.37,0.56,1.74,0.82,
15:15:46:299,6.97,-4.29,1.53,0.56,1.74,0.82,
15:15:46:324,6.63,-4.56,1.39,0.56,1.74,0.82,
15:15:46:324,6.17,-4.46,1.11,0.56,1.74,0.82,
15:15:46:325,5.78,-4.38,0.77,0.56,1.74,0.82,
15:15:46:325,5.73,-4.96,0.77,0.56,1.74,0.82,
15:15:46:326,5.58,-5.31,0.45,0.56,1.74,0.82,
15:15:46:326,4.73,-5.67,0.40,0.56,1.74,0.82,
15:15:46:326,4.07,-5.71,1.05,0.56,1.74,0.82,
15:15:46:327,3.51,-5.34,1.82,0.56,1.74,0.82,
15:15:46:327,3.17,-4.84,2.13,0.56,1.74,0.82,
15:15:46:328,2.97,-4.40,2.36,0.56,1.74,0.82,
15:15:46:328,2.84,-4.15,2.54,0.56,1.74,0.82,
15:15:46:328,3.11,-3.96,2.80,0.56,1.74,0.82,
15:15:46:329,3.54,-3.85,2.71,0.56,1.74,0.82,
15:15:46:329,4.02,-3.87,2.45,0.56,1.74,0.82,
15:15:46:330,4.42,-3.76,2.04,0.56,1.74,0.82,
15:15:46:330,4.36,-3.12,1.56,0.56,1.74,0.82,
15:15:46:330,4.80,-3.30,1.26,0.56,1.74,0.82,
15:15:46:331,4.83,-3.48,0.88,0.56,1.74,0.82,
15:15:46:331,4.54,-3.47,0.52,0.56,1.74,0.82,
15:15:46:332,4.28,-3.29,0.25,0.56,1.74,0.82,
15:15:46:332,3.93,-3.01,0.13,0.56,1.74,0.82,
15:15:46:332,3.41,-2.65,0.28,0.56,1.74,0.82,
15:15:46:333,3.10,-2.39,0.60,0.56,1.74,0.82,
15:15:46:333,2.73,-2.05,0.94,0.56,1.74,0.82,
15:15:46:334,2.38,-1.70,1.14,0.56,1.74,0.82,
15:15:46:334,2.14,-1.30,1.19,0.56,1.74,0.82,
15:15:46:334,2.12,-0.94,1.14,0.56,1.74,0.82,
15:15:46:335,2.15,-0.67,0.94,0.56,1.74,0.82,
15:15:46:335,2.18,-0.50,0.73,0.56,1.74,0.82,
15:15:46:336,2.18,-0.20,0.48,0.56,1.74,0.82,
15:15:46:336,2.18,0.31,0.06,0.56,1.74,0.82,
15:15:46:336,2.75,0.14,-0.27,0.56,1.74,0.82,
15:15:46:337,3.00,0.19,-0.52,0.56,1.74,0.82,
15:15:46:337,3.21,0.31,-0.92,0.56,1.74,0.82,
15:15:46:338,3.21,0.54,-1.44,0.56,1.74,0.82,
15:15:46:338,3.03,0.81,-1.73,0.56,1.74,0.82,
15:15:46:339,2.75,0.98,-2.03,0.56,1.74,0.82,
15:15:46:339,2.56,1.05,-2.16,0.56,1.74,0.82,
15:15:46:339,2.31,1.07,-2.15,0.56,1.74,0.82,
15:15:46:340,2.10,1.03,-2.02,0.56,1.74,0.82,
15:15:46:340,1.92,0.99,-1.91,0.56,1.74,0.82,
15:15:46:341,1.72,0.93,-1.77,0.56,1.74,0.82,
15:15:46:341,1.48,0.87,-1.61,0.56,1.74,0.82,
15:15:46:341,1.38,0.81,-1.44,0.56,1.74,0.82,
15:15:46:342,1.34,0.72,-1.21,0.56,1.74,0.82,
15:15:46:342,1.38,0.63,-0.96,0.56,1.74,0.82,
15:15:46:343,1.51,0.59,-0.66,0.56,1.74,0.82,
15:15:46:343,1.75,0.65,-0.33,0.56,1.74,0.82,
15:15:46:343,1.99,0.80,-0.06,0.56,1.74,0.82,
15:15:46:344,2.26,1.01,0.12,0.56,1.74,0.82,
15:15:46:344,2.53,1.24,0.38,0.56,1.74,0.82,
15:15:46:345,2.75,1.49,0.64,0.56,1.74,0.82,
15:15:46:345,2.88,1.78,0.86,0.56,1.74,0.82,
15:15:46:345,2.85,2.02,0.99,0.56,1.74,0.82,
15:15:46:346,2.73,2.23,1.13,0.56,1.74,0.82,
15:15:46:346,2.59,2.46,1.08,0.56,1.74,0.82,
15:15:46:347,2.33,2.65,1.12,0.56,1.74,0.82,
15:15:46:347,2.05,2.80,1.11,0.56,1.74,0.82,
15:15:46:347,1.84,2.98,1.11,0.56,1.74,0.82,
15:15:46:348,1.70,3.09,1.12,0.56,1.74,0.82,
15:15:46:348,1.53,3.20,1.09,0.56,1.74,0.82,
15:15:46:348,1.33,3.33,1.02,0.56,1.74,0.82,
15:15:46:349,1.14,3.36,0.98,0.56,1.74,0.82,
15:15:46:349,0.99,3.41,0.95,0.56,1.74,0.82,
15:15:46:350,0.83,3.42,0.84,0.56,1.74,0.82,
15:15:46:350,0.63,3.49,0.67,0.56,1.74,0.82,
15:15:46:351,0.43,3.59,0.53,0.56,1.74,0.82,
15:15:46:351,0.35,3.58,0.38,0.56,1.74,0.82,
15:15:46:352,0.31,3.47,0.25,0.56,1.74,0.82,
15:15:46:352,0.28,3.37,0.15,0.56,1.74,0.82,
15:15:46:352,0.25,3.29,0.04,0.56,1.74,0.82,
15:15:46:353,0.28,3.18,0.02,0.56,1.74,0.82,
15:15:46:353,0.42,3.04,-0.02,0.56,1.74,0.82,
15:15:46:354,0.60,2.77,-0.07,0.56,1.74,0.82,
15:15:46:355,0.70,2.54,0.11,0.56,1.74,0.82,
15:15:46:356,0.68,2.43,0.48,0.56,1.74,0.82,
15:15:46:357,0.59,2.26,0.72,0.56,1.74,0.82,
15:15:46:357,0.74,2.01,1.07,0.56,1.74,0.82,
15:15:46:359,1.24,1.65,1.45,0.56,1.74,0.82,
15:15:46:360,1.65,1.27,1.67,0.56,1.74,0.82,
15:15:46:361,1.74,0.88,1.60,0.56,1.74,0.82,
15:15:46:361,1.50,0.60,1.60,0.56,1.74,0.82,
15:15:46:361,1.13,0.46,1.72,0.56,1.74,0.82,
15:15:46:362,0.76,0.37,1.88,0.56,1.74,0.82,
15:15:46:363,0.42,0.22,1.91,0.56,1.74,0.82,
15:15:46:363,-0.07,0.00,1.95,0.56,1.74,0.82,
15:15:46:364,-0.40,-0.19,1.90,0.56,1.74,0.82,
15:15:46:366,-0.94,-0.39,1.54,0.56,1.74,0.82,
15:15:46:367,-1.71,-0.59,1.28,0.56,1.74,0.82,
15:15:46:367,-2.30,-0.77,1.37,0.56,1.74,0.82,
15:15:46:368,-2.67,-1.05,1.70,0.56,1.74,0.82,
15:15:46:368,-2.85,-1.44,1.92,0.56,1.74,0.82,
15:15:46:369,-2.92,-1.75,2.06,0.56,1.74,0.82,
15:15:46:369,-3.04,-1.89,2.28,0.56,1.74,0.82,
15:15:46:369,-3.09,-2.07,2.21,0.56,1.74,0.82,
15:15:46:370,-3.16,-2.24,2.09,0.56,1.74,0.82,
15:15:46:370,-3.21,-2.39,1.93,0.56,1.74,0.82,
15:15:46:370,-3.27,-2.57,1.87,0.56,1.74,0.82,
15:15:46:371,-3.30,-2.76,1.75,0.56,1.74,0.82,
15:15:46:371,-3.24,-3.05,1.58,0.56,1.74,0.82,
15:15:46:397,-3.24,-3.36,1.41,0.56,1.74,0.82,
15:15:46:397,-3.25,-3.69,1.18,0.56,1.74,0.82,
15:15:46:398,-3.39,-3.86,1.13,0.56,1.74,0.82,
15:15:46:398,-3.49,-4.01,0.89,0.56,1.74,0.82,
15:15:46:399,-3.55,-4.33,0.69,0.56,1.74,0.82,
15:15:46:399,-3.71,-4.57,1.04,0.56,1.74,0.82,
15:15:46:400,-4.33,-4.20,1.67,0.56,1.74,0.82,
15:15:46:400,-4.56,-4.40,1.23,0.56,1.74,0.82,
15:15:46:401,-5.26,-3.90,0.92,0.56,1.74,0.82,
15:15:46:401,-5.42,-4.16,1.49,0.56,1.74,0.82,
15:15:46:401,-5.71,-4.78,1.96,0.56,1.74,0.82,
15:15:46:402,-6.18,-4.92,2.58,0.56,1.74,0.82,
15:15:46:402,-6.50,-4.76,2.93,0.56,1.74,0.82,
15:15:46:403,-6.79,-4.32,3.01,0.56,1.74,0.82,
15:15:46:403,-6.97,-3.80,2.98,0.56,1.74,0.82,
15:15:46:404,-6.83,-3.64,2.69,0.56,1.74,0.82,
15:15:46:404,-6.68,-3.83,2.36,0.56,1.74,0.82,
15:15:46:404,-6.47,-4.14,2.12,0.56,1.74,0.82,
15:15:46:405,-6.18,-4.34,1.91,0.56,1.74,0.82,
15:15:46:405,-6.01,-4.35,1.95,0.56,1.74,0.82,
15:15:46:406,-5.73,-4.20,2.11,0.56,1.74,0.82,
15:15:46:406,-5.32,-3.77,2.17,0.56,1.74,0.82,
15:15:46:407,-5.17,-3.28,1.93,0.56,1.74,0.82,
15:15:46:407,-5.04,-2.98,1.58,0.56,1.74,0.82,
15:15:46:408,-5.02,-2.69,1.25,0.56,1.74,0.82,
15:15:46:408,-4.69,-2.68,0.89,0.56,1.74,0.82,
15:15:46:408,-4.53,-2.58,0.79,0.56,1.74,0.82,
15:15:46:409,-4.42,-2.46,0.66,0.56,1.74,0.82,
15:15:46:409,-4.40,-2.30,0.32,0.56,1.74,0.82,
15:15:46:410,-4.41,-2.18,0.10,0.56,1.74,0.82,
15:15:46:410,-4.40,-2.08,-0.02,0.56,1.74,0.82,
15:15:46:411,-4.47,-1.98,0.01,0.56,1.74,0.82,
15:15:46:411,-4.50,-1.99,0.34,0.56,1.74,0.82,
15:15:46:412,-4.63,-2.06,0.83,0.56,1.74,0.82,
15:15:46:412,-4.63,-2.02,1.44,0.56,1.74,0.82,
15:15:46:412,-4.56,-1.86,1.87,0.56,1.74,0.82,
15:15:46:413,-4.31,-1.74,1.99,0.56,1.74,0.82,
15:15:46:413,-4.08,-1.57,2.11,0.56,1.74,0.82,
15:15:46:414,-3.75,-1.40,2.37,0.56,1.74,0.82,
15:15:46:414,-3.40,-1.24,2.39,0.56,1.74,0.82,
15:15:46:415,-3.17,-1.00,2.35,0.56,1.74,0.82,
15:15:46:415,-2.95,-0.76,2.23,0.56,1.74,0.82,
15:15:46:416,-2.77,-0.53,2.06,0.56,1.74,0.82,
15:15:46:416,-2.61,-0.36,1.91,0.56,1.74,0.82,
15:15:46:416,-2.49,-0.18,1.81,0.56,1.74,0.82,
15:15:46:417,-2.46,-0.09,1.52,0.56,1.74,0.82,
15:15:46:417,-2.26,-0.12,1.25,0.56,1.74,0.82,
15:15:46:418,-2.16,-0.19,1.00,0.56,1.74,0.82,
15:15:46:418,-2.21,-0.21,0.70,0.56,1.74,0.82,
15:15:46:418,-2.23,-0.20,0.50,0.56,1.74,0.82,
15:15:46:419,-2.21,-0.17,0.45,0.56,1.74,0.82,
15:15:46:419,-2.29,-0.07,0.40,0.56,1.74,0.82,
15:15:46:420,-2.34,0.09,0.38,0.56,1.74,0.82,
15:15:46:420,-2.37,0.19,0.41,0.56,1.74,0.82,
15:15:46:420,-2.36,0.39,0.55,0.56,1.74,0.82,
15:15:46:421,-2.31,0.63,0.63,0.56,1.74,0.82,
15:15:46:421,-2.19,0.88,0.71,0.56,1.74,0.82,
15:15:46:422,-2.13,1.22,0.84,0.56,1.74,0.82,
15:15:46:422,-2.16,1.62,0.79,0.56,1.74,0.82,
15:15:46:422,-2.14,1.96,0.64,0.56,1.74,0.82,
15:15:46:423,-2.09,2.27,0.47,0.56,1.74,0.82,
15:15:46:423,-2.08,2.60,0.26,0.56,1.74,0.82,
15:15:46:423,-2.03,2.89,-0.03,0.56,1.74,0.82,
15:15:46:424,-2.03,3.15,-0.28,0.56,1.74,0.82,
15:15:46:424,-2.09,3.39,-0.51,0.56,1.74,0.82,
15:15:46:425,-2.02,3.55,-0.66,0.56,1.74,0.82,
15:15:46:425,-1.76,3.59,-0.74,0.56,1.74,0.82,
15:15:46:425,-1.33,3.58,-0.76,0.56,1.74,0.82,
15:15:46:426,-0.76,3.55,-0.71,0.56,1.74,0.82,
15:15:46:426,-0.26,3.61,-0.77,0.56,1.74,0.82,
15:15:46:426,0.20,3.61,-0.99,0.56,1.74,0.82,
15:15:46:427,0.62,3.55,-1.27,0.56,1.74,0.82,
15:15:46:427,0.97,3.50,-1.48,0.56,1.74,0.82,
15:15:46:428,1.06,3.66,-1.65,0.56,1.74,0.82,
15:15:46:428,0.89,3.91,-1.96,0.56,1.74,0.82,
15:15:46:428,1.08,3.36,-2.16,0.56,1.74,0.82,
15:15:46:429,0.86,3.08,-2.24,0.56,1.74,0.82,
15:15:46:429,0.34,3.10,-2.12,0.56,1.74,0.82,
15:15:46:429,-0.07,3.18,-2.06,0.56,1.74,0.82,
15:15:46:430,-0.35,3.23,-1.92,0.56,1.74,0.82,
15:15:46:430,-0.61,3.27,-1.69,0.56,1.74,0.82,
15:15:46:431,-0.80,3.29,-1.56,0.56,1.74,0.82,
15:15:46:431,-0.78,3.30,-1.47,0.56,1.74,0.82,
15:15:46:431,-0.73,3.20,-1.49,0.56,1.74,0.82,
15:15:46:432,-0.32,3.00,-1.15,0.56,1.74,0.82,
15:15:46:432,0.13,2.86,-0.79,0.56,1.74,0.82,
15:15:46:432,0.23,2.50,-0.95,0.56,1.74,0.82,
15:15:46:433,0.51,2.14,-1.13,0.56,1.74,0.82,
15:15:46:433,1.08,1.84,-1.27,0.56,1.74,0.82,
15:15:46:434,1.40,1.67,-1.29,0.56,1.74,0.82,
15:15:46:434,1.51,1.60,-1.32,0.56,1.74,0.82,
15:15:46:434,1.62,1.48,-1.33,0.56,1.74,0.82,
15:15:46:435,1.67,1.29,-1.40,0.56,1.74,0.82,
15:15:46:435,1.59,1.11,-1.52,0.56,1.74,0.82,
15:15:46:435,1.39,0.89,-1.81,0.56,1.74,0.82,
15:15:46:436,1.76,0.55,-1.54,0.56,1.74,0.82,
15:15:46:436,1.89,0.53,-1.19,0.56,1.74,0.82,
15:15:46:437,1.61,0.50,-1.15,0.56,1.74,0.82,
15:15:46:437,1.61,0.37,-1.20,0.56,1.74,0.82,
15:15:46:437,1.67,0.20,-1.07,0.56,1.74,0.82,
15:15:46:462,1.61,0.13,-0.80,0.56,1.74,0.82,
15:15:46:463,1.17,-0.06,-0.83,0.56,1.74,0.82,
15:15:46:464,1.08,-0.19,-0.62,0.56,1.74,0.82,
15:15:46:464,0.98,-0.28,-0.55,0.56,1.74,0.82,
15:15:46:464,0.95,-0.32,-0.44,0.56,1.74,0.82,
15:15:46:465,1.06,-0.28,-0.42,0.56,1.74,0.82,
15:15:46:465,1.15,-0.33,-0.33,0.56,1.74,0.82,
15:15:46:465,1.70,-0.65,-0.33,0.56,1.74,0.82,
15:15:46:466,2.42,-1.17,-0.22,0.56,1.74,0.82,
15:15:46:466,3.09,-1.67,-0.02,0.56,1.74,0.82,
15:15:46:466,3.48,-2.14,0.30,0.56,1.74,0.82,
15:15:46:467,3.77,-2.58,0.54,0.56,1.74,0.82,
15:15:46:467,3.67,-2.68,1.01,0.56,1.74,0.82,
15:15:46:468,3.02,-1.85,1.87,0.56,1.74,0.82,
15:15:46:468,3.22,-2.13,1.16,0.56,1.74,0.82,
15:15:46:468,3.54,-2.61,1.05,0.56,1.74,0.82,
15:15:46:469,4.07,-2.85,1.11,0.56,1.74,0.82,
15:15:46:469,3.89,-3.39,1.27,0.56,1.74,0.82,
15:15:46:469,4.00,-3.68,1.75,0.56,1.74,0.82,
15:15:46:470,3.91,-3.66,1.78,0.56,1.74,0.82,
15:15:46:470,3.60,-3.33,1.63,0.56,1.74,0.82,
15:15:46:471,3.50,-2.70,1.41,0.56,1.74,0.82,
15:15:46:471,3.21,-2.03,1.23,0.56,1.74,0.82,
15:15:46:471,3.27,-1.69,0.82,0.56,1.74,0.82,
15:15:46:472,3.55,-1.64,0.27,0.56,1.74,0.82,
15:15:46:472,3.83,-1.74,-0.41,0.56,1.74,0.82,
15:15:46:473,4.09,-1.90,-1.09,0.56,1.74,0.82,
15:15:46:473,4.31,-2.03,-1.68,0.56,1.74,0.82,
15:15:46:473,4.70,-2.32,-2.08,0.56,1.74,0.82,
15:15:46:474,5.17,-2.68,-2.04,0.56,1.74,0.82,
15:15:46:474,5.60,-2.98,-1.52,0.56,1.74,0.82,
15:15:46:474,6.03,-3.30,-0.89,0.56,1.74,0.82,
15:15:46:475,6.22,-3.58,-0.04,0.56,1.74,0.82,
15:15:46:475,6.25,-3.68,0.98,0.56,1.74,0.82,
15:15:46:475,6.20,-3.76,1.86,0.56,1.74,0.82,
15:15:46:476,6.01,-3.72,2.62,0.56,1.74,0.82,
15:15:46:476,5.78,-3.57,3.09,0.56,1.74,0.82,
15:15:46:477,5.51,-3.39,3.18,0.56,1.74,0.82,
15:15:46:477,5.33,-3.27,3.14,0.56,1.74,0.82,
15:15:46:477,5.12,-3.09,3.06,0.56,1.74,0.82,
15:15:46:478,4.84,-2.76,2.84,0.56,1.74,0.82,
15:15:46:478,4.57,-2.42,2.68,0.56,1.74,0.82,
15:15:46:478,4.21,-2.08,2.37,0.56,1.74,0.82,
15:15:46:479,3.80,-1.82,1.99,0.56,1.74,0.82,
15:15:46:479,3.47,-1.71,1.68,0.56,1.74,0.82,
15:15:46:480,3.37,-1.73,1.53,0.56,1.74,0.82,
15:15:46:480,3.44,-1.81,1.49,0.56,1.74,0.82,
15:15:46:480,3.43,-1.78,1.45,0.56,1.74,0.82,
15:15:46:481,3.43,-1.72,1.31,0.56,1.74,0.82,
15:15:46:481,3.48,-1.66,1.17,0.56,1.74,0.82,
15:15:46:481,3.55,-1.50,1.13,0.56,1.74,0.82,
15:15:46:482,3.72,-1.37,0.93,0.56,1.74,0.82,
15:15:46:482,3.73,-1.30,0.66,0.56,1.74,0.82,
15:15:46:483,3.63,-1.19,0.37,0.56,1.74,0.82,
15:15:46:483,3.63,-1.01,0.13,0.56,1.74,0.82,
15:15:46:483,3.74,-0.77,-0.11,0.56,1.74,0.82,
15:15:46:484,3.83,-0.57,-0.33,0.56,1.74,0.82,
15:15:46:484,3.78,-0.39,-0.52,0.56,1.74,0.82,
15:15:46:484,3.66,-0.21,-0.73,0.56,1.74,0.82,
15:15:46:485,3.51,-0.09,-0.85,0.56,1.74,0.82,
15:15:46:485,3.20,-0.00,-0.88,0.56,1.74,0.82,
15:15:46:486,2.83,0.04,-0.81,0.56,1.74,0.82,
15:15:46:486,2.43,0.07,-0.60,0.56,1.74,0.82,
15:15:46:486,2.12,0.10,-0.42,0.56,1.74,0.82,
15:15:46:487,1.83,0.14,-0.28,0.56,1.74,0.82,
15:15:46:487,1.43,0.16,-0.09,0.56,1.74,0.82,
15:15:46:488,0.98,0.22,0.17,0.56,1.74,0.82,
15:15:46:488,0.59,0.26,0.43,0.56,1.74,0.82,
15:15:46:488,0.25,0.31,0.63,0.56,1.74,0.82,
15:15:46:489,-0.05,0.38,0.79,0.56,1.74,0.82,
15:15:46:489,-0.16,0.40,0.94,0.56,1.74,0.82,
15:15:46:490,-0.02,0.33,1.05,0.56,1.74,0.82,
15:15:46:490,0.16,0.24,1.07,0.56,1.74,0.82,
