Timestamp,gx,gy,gz,ax,ay,az
2020-12-01 18:41:13.1520,-0.12408839166164398,-0.6006965041160583,0.3801329433917999,0.133544921875,-0.9340667724609376,-0.380096435546875
2020-12-01 18:41:13.1630,-0.12408839166164398,-0.6006965041160583,0.3801329433917999,0.133544921875,-0.9340667724609376,-0.380096435546875
2020-12-01 18:41:13.1840,-0.233137920498848,-0.26371634006500244,0.334171324968338,-0.06475830078125,-0.8615570068359375,-0.3675689697265625
2020-12-01 18:41:13.2170,0.017165403813123703,0.7904797196388245,0.19663476943969727,-0.1269989013671875,-0.9996337890625,-0.1058197021484375
2020-12-01 18:41:13.2350,0.07956193387508392,0.25863555073738104,0.2703087031841278,0.0688018798828125,-1.0176239013671875,-0.1914825439453125
2020-12-01 18:41:13.2520,0.06150037795305253,-0.4324643313884735,0.4290016889572144,0.131317138671875,-1.0097808837890625,-0.259033203125
2020-12-01 18:41:13.2680,0.06150037795305253,-0.4324643313884735,0.4290016889572144,0.131317138671875,-1.0097808837890625,-0.259033203125
2020-12-01 18:41:13.2850,0.044491034001111984,-0.6483907699584961,0.4101057648658752,0.0108642578125,-0.9243621826171876,-0.30865478515625
2020-12-01 18:41:13.3040,0.03725789114832878,-0.2880821228027344,0.3767664432525635,-0.02496337890625,-0.941558837890625,-0.2270660400390625
2020-12-01 18:41:13.3350,0.10049864649772644,0.5202440023422241,0.16908569633960724,-0.0331573486328125,-1.003143310546875,-0.1085662841796875
2020-12-01 18:41:13.3520,0.10049864649772644,0.5202440023422241,0.16908569633960724,0.0376434326171875,-0.9704742431640624,-0.0911865234375
2020-12-01 18:41:13.3680,0.0371210016310215,0.2937682271003723,0.11507119238376615,0.0376434326171875,-0.9704742431640624,-0.0911865234375
2020-12-01 18:41:13.3850,-0.13499164581298828,-0.3755153119564056,0.2175477743148804,0.0370635986328125,-0.95489501953125,-0.2113189697265625
2020-12-01 18:41:13.4030,-0.25047004222869873,-0.6396042108535767,0.2796260416507721,-0.109130859375,-0.9413604736328124,-0.2936553955078125
2020-12-01 18:41:13.4350,-0.15548546612262726,0.3786042928695679,0.08519238978624344,-0.3054656982421875,-1.025421142578125,-0.197540283203125
2020-12-01 18:41:13.4520,-0.15548546612262726,0.3786042928695679,0.08519238978624344,-0.169036865234375,-0.9928436279296876,-0.2042388916015625
2020-12-01 18:41:13.4680,-0.059173308312892914,0.4904027283191681,0.2277492731809616,-0.169036865234375,-0.9928436279296876,-0.2042388916015625
2020-12-01 18:41:13.4850,0.027634024620056152,0.17968428134918213,0.30476710200309753,-0.06427001953125,-0.9997100830078124,-0.2316741943359375
2020-12-01 18:41:13.5030,0.040170054882764816,-0.012548814527690409,0.2153692990541458,0.0296173095703125,-0.93853759765625,-0.228790283203125
2020-12-01 18:41:13.5350,-0.04194105789065361,-0.4062724113464356,0.3196821212768555,-0.127105712890625,-0.8918914794921875,-0.4295501708984375
2020-12-01 18:41:13.5520,-0.04194105789065361,-0.4062724113464356,0.3196821212768555,-0.4044647216796875,-0.9338226318359376,-0.34033203125
2020-12-01 18:41:13.5680,0.13058863580226898,0.07138523459434509,0.1831250786781311,-0.4044647216796875,-0.9338226318359376,-0.34033203125
2020-12-01 18:41:13.5850,0.2406733334064484,0.387632429599762,0.09360744804143906,-0.2480926513671875,-1.018463134765625,-0.283599853515625
2020-12-01 18:41:13.6040,0.24058836698532104,0.16134388744831085,0.21092554926872253,-0.0147857666015625,-0.9875030517578124,-0.3148956298828125
2020-12-01 18:41:13.6350,0.284973680973053,-0.2236884832382202,0.09223778545856476,-0.0530853271484375,-0.9589691162109376,-0.206298828125
2020-12-01 18:41:13.6510,0.284973680973053,-0.2236884832382202,0.09223778545856476,-0.05908203125,-0.8781890869140625,-0.1895751953125
2020-12-01 18:41:13.6680,0.2394554615020752,-0.5474742650985718,-0.006665625609457493,-0.05908203125,-0.8781890869140625,-0.1895751953125
2020-12-01 18:41:13.6840,0.21513840556144714,-0.6990517973899841,0.009557552635669708,-0.173126220703125,-0.9020233154296876,-0.2368927001953125
2020-12-01 18:41:13.7040,0.25390443205833435,-0.4229270219802856,-0.04972068592905998,-0.3179168701171875,-1.02423095703125,-0.22412109375
2020-12-01 18:41:13.7350,0.25116166472435003,-0.1239704117178917,-0.11224930733442308,-0.1472625732421875,-0.921875,-0.19451904296875
2020-12-01 18:41:13.7510,0.25116166472435003,-0.1239704117178917,-0.11224930733442308,-0.1472625732421875,-0.921875,-0.19451904296875
2020-12-01 18:41:13.7680,0.2048889696598053,-0.2402283102273941,-0.1024336963891983,-0.2360076904296875,-0.926910400390625,-0.225738525390625
2020-12-01 18:41:13.7850,0.23408040404319766,-0.19738523662090304,-0.040771663188934326,-0.230804443359375,-1.0250396728515625,-0.1897125244140625
2020-12-01 18:41:13.8040,0.2816982567310333,-0.013652961701154707,-0.1428607553243637,-0.2388916015625,-0.9176025390625,-0.15484619140625
2020-12-01 18:41:13.8350,0.30461716651916504,-0.16488881409168246,-0.19691386818885806,-0.004180908203125,-1.0162200927734375,-0.1185150146484375
2020-12-01 18:41:13.8510,0.30461716651916504,-0.16488881409168246,-0.19691386818885806,-0.004180908203125,-1.0162200927734375,-0.1185150146484375
2020-12-01 18:41:13.8680,0.35253673791885376,-0.3682118356227875,-0.2699353396892548,0.024078369140625,-0.9775848388671876,-0.0691986083984375
2020-12-01 18:41:13.8850,0.13686464726924896,-0.7693315744400024,-0.16508935391902926,0.0469207763671875,-0.9047698974609376,-0.0565948486328125
2020-12-01 18:41:13.9040,-0.057624679058790214,-0.7305940389633179,-0.20770925283432007,-0.1214141845703125,-0.785430908203125,-0.3392333984375
2020-12-01 18:41:13.9350,0.011647335253655909,-0.05125386640429497,-0.41666513681411743,-0.262451171875,-1.1118927001953125,-0.09716796875
2020-12-01 18:41:13.9500,0.19918501377105716,0.5555183291435242,-0.4291470944881439,-0.262451171875,-1.1118927001953125,-0.09716796875
2020-12-01 18:41:13.9680,0.3157497048377991,0.8557335734367371,-0.23525911569595334,-0.260711669921875,-1.0272979736328125,-0.081298828125
2020-12-01 18:41:13.9850,0.5011408925056458,0.9580138921737672,-0.1235981062054634,-0.232757568359375,-1.0037078857421875,-0.02459716796875
2020-12-01 18:41:14.0040,0.3949611783027649,0.8118707537651062,-0.2849569022655487,-0.000335693359375,-0.9489288330078124,0.04083251953125
2020-12-01 18:41:14.0340,0.0545324832201004,-0.6080974340438843,-0.052741773426532745,-0.005950927734375,-1.107574462890625,-0.4474639892578125
2020-12-01 18:41:14.0510,0.02390985935926437,-0.7259979248046875,0.23216372728347776,-0.005950927734375,-1.107574462890625,-0.4474639892578125
2020-12-01 18:41:14.0680,0.2348513901233673,0.2768121659755707,0.02746198512613773,-0.47430419921875,-1.055084228515625,-0.1196746826171875
2020-12-01 18:41:14.0850,0.4184782207012177,0.8809531927108765,0.012818593531847,-0.330596923828125,-0.989501953125,-0.0587921142578125
2020-12-01 18:41:14.1040,0.43011435866355896,0.4094983041286469,0.0573170855641365,0.0347900390625,-1.0189666748046875,-0.021636962890625
2020-12-01 18:41:14.1350,0.3905491232872009,-0.024522652849555016,-0.01251206360757351,0.117218017578125,-0.9492950439453124,-0.0731048583984375
2020-12-01 18:41:14.1510,0.20349399745464325,-0.8361747860908508,0.0642937645316124,0.117218017578125,-0.9492950439453124,-0.0731048583984375
2020-12-01 18:41:14.1680,0.027628697454929352,-1.221925139427185,0.2451053559780121,0.0193328857421875,-0.990020751953125,-0.152191162109375
2020-12-01 18:41:14.1840,0.08982549607753754,-0.6444692611694336,0.1460312455892563,-0.2704010009765625,-1.025482177734375,-0.18475341796875
2020-12-01 18:41:14.2040,0.2022556364536285,0.3440186381340027,-0.057621218264102936,-0.2866058349609375,-1.0584564208984375,-0.027557373046875
2020-12-01 18:41:14.2350,0.256731390953064,0.6014805436134338,-0.16625314950942993,0.2393341064453125,-0.92193603515625,0.0909423828125
2020-12-01 18:41:14.2510,0.2877329885959625,0.1655852347612381,-0.2317517399787903,0.2393341064453125,-0.92193603515625,0.0909423828125
2020-12-01 18:41:14.2680,0.1356523633003235,-0.8448652029037476,-0.31375738978385925,0.3409881591796875,-0.8369598388671875,0.04345703125
2020-12-01 18:41:14.2840,-0.18133756518363955,-1.8381893634796145,-0.1075807884335518,-0.073455810546875,-0.8354034423828125,-0.0470428466796875
2020-12-01 18:41:14.3040,-0.0354650504887104,-1.2157500982284546,0.006162554491311312,-0.2984466552734375,-1.1274871826171875,-0.1952972412109375
2020-12-01 18:41:14.3350,0.06706398725509644,-0.26785755157470703,-0.16625715792179108,-0.6828155517578125,-1.2783203125,-0.1475677490234375
2020-12-01 18:41:14.3510,0.16457243263721466,0.7228628993034363,-0.14353719353675842,-0.5735015869140625,-1.1767578125,-0.0939178466796875
2020-12-01 18:41:14.3680,0.1660182625055313,0.6824829578399658,-0.14640195667743686,-0.2274322509765625,-0.9970550537109376,-0.0657806396484375
2020-12-01 18:41:14.3840,0.16999010741710666,0.25638464093208313,-0.1892138719558716,-0.031707763671875,-0.94287109375,0.0182342529296875
2020-12-01 18:41:14.4030,0.028826056048274037,-0.21130985021591187,-0.22226236760616305,0.08349609375,-0.92364501953125,0.0489349365234375
2020-12-01 18:41:14.4340,-0.09761417657136916,-0.7195895910263062,-0.19154919683933255,0.139556884765625,-0.9038543701171876,-0.0831451416015625
2020-12-01 18:41:14.4510,-0.16300064325332642,-0.8560011982917786,-0.1754991114139557,0.1150665283203125,-0.9298858642578124,-0.1098480224609375
2020-12-01 18:41:14.4680,-0.1525903344154358,-0.6741847991943359,-0.25747546553611755,0.0668182373046875,-0.9846038818359376,-0.10479736328125
2020-12-01 18:41:14.4840,-0.04433710500597954,-0.1900801956653595,-0.2808303236961365,0.036346435546875,-0.9964599609375,0.0304718017578125
2020-12-01 18:41:14.5040,0.006473612040281296,0.20223885774612427,-0.2590866982936859,-0.1380767822265625,-0.88031005859375,0.0110931396484375
2020-12-01 18:41:14.5350,-0.057576209306716926,0.4162235856056213,-0.31351104378700256,-0.176177978515625,-0.9071197509765624,-0.064697265625
2020-12-01 18:41:14.5510,-0.14749065041542053,-0.0986991450190544,-0.2560110092163086,-0.031005859375,-1.076751708984375,-0.1597137451171875
2020-12-01 18:41:14.5680,-0.35826918482780457,-1.0876789093017578,-0.3017270863056183,0.0209197998046875,-1.18231201171875,-0.2877960205078125
2020-12-01 18:41:14.5840,-0.3930032253265381,-0.9691176414489746,-0.355427086353302,-0.07049560546875,-1.1062774658203125,-0.28082275390625
2020-12-01 18:41:14.6040,-0.19837087392807007,0.4394862949848175,-0.4072553813457489,-0.2599334716796875,-0.9639892578125,-0.1038055419921875
2020-12-01 18:41:14.6350,-0.004896488040685654,1.3530416488647459,-0.4458672106266022,-0.3834228515625,-0.8601531982421875,-0.1124114990234375
2020-12-01 18:41:14.6510,0.24526435136795044,2.0404751300811768,-0.5377998352050781,-0.116546630859375,-0.9972686767578124,-0.09674072265625
2020-12-01 18:41:14.6680,0.4158099889755249,2.0639517307281494,-0.5379974246025085,0.0016937255859375,-1.016448974609375,-0.0604248046875
2020-12-01 18:41:14.6840,0.427757203578949,1.834757924079895,-0.6148653030395508,0.0318145751953125,-0.94500732421875,-0.03912353515625
2020-12-01 18:41:14.7040,0.2960955798625946,1.2308070659637451,-0.573157548904419,0.1594085693359375,-0.9866790771484376,-0.030059814453125
2020-12-01 18:41:14.7350,0.1710452437400818,0.31272995471954346,-0.44385680556297297,0.2454833984375,-1.010650634765625,-0.01275634765625
2020-12-01 18:41:14.7510,0.08333802968263626,-0.3379042744636536,-0.3453691005706787,0.1331939697265625,-1.014617919921875,0.070343017578125
2020-12-01 18:41:14.7680,0.09167905151844023,-0.6554606556892395,-0.23492276668548584,0.0522918701171875,-1.0081787109375,0.0921630859375
2020-12-01 18:41:14.7850,0.1478930562734604,-0.587568461894989,-0.1613161861896515,0.035491943359375,-0.965972900390625,0.11590576171875
2020-12-01 18:41:14.8040,0.19959940016269684,-0.4113095104694367,-0.0883202776312828,-0.014892578125,-0.93927001953125,0.103546142578125
2020-12-01 18:41:14.8350,0.3031409680843353,-0.2894041240215301,-0.02168798446655273,-0.0054473876953125,-0.9556884765625,0.0365142822265625
2020-12-01 18:41:14.8510,0.2674580812454224,-0.37765514850616455,0.06926055997610092,0.0050506591796875,-0.9320526123046876,-0.053802490234375
2020-12-01 18:41:14.8680,0.16457456350326538,-0.4259779453277588,0.13288187980651855,-0.0764617919921875,-0.9465484619140624,-0.158111572265625
2020-12-01 18:41:14.8850,0.08653169870376587,-0.20817583799362185,0.23222577571868894,-0.1014862060546875,-0.9638671875,-0.1944580078125
2020-12-01 18:41:14.9030,0.07831691205501556,0.2562994360923767,0.3030991554260254,-0.07958984375,-0.993743896484375,-0.19183349609375
2020-12-01 18:41:14.9350,0.0200999416410923,0.5885236859321594,0.3377774953842163,-0.0521392822265625,-0.9683685302734376,-0.1551055908203125
2020-12-01 18:41:14.9510,0.04121002182364464,0.862834095954895,0.3434710800647736,-0.0107574462890625,-0.9128570556640624,-0.161651611328125
2020-12-01 18:41:14.9680,0.045394111424684525,1.0049136877059937,0.3715362548828125,0.0045013427734375,-0.9500885009765624,-0.07525634765625
2020-12-01 18:41:14.9850,-0.010095510631799698,0.8341526389122009,0.412957489490509,0.0598297119140625,-0.9912109375,-0.061187744140625
2020-12-01 18:41:15.0040,-0.07531392574310303,0.3788442611694336,0.4338513016700745,0.1135711669921875,-1.02520751953125,-0.0278472900390625
2020-12-01 18:41:15.0350,-0.10513360798358916,-0.09439920634031296,0.48487988114357,0.1284637451171875,-1.0288848876953125,-0.0034332275390625
2020-12-01 18:41:15.0510,-0.025950906798243526,-0.1508965641260147,0.4911247193813324,0.086334228515625,-0.9762725830078124,0.019866943359375
2020-12-01 18:41:15.0680,0.076874278485775,-0.2624097764492035,0.4755654633045197,0.080902099609375,-0.926666259765625,0.0630035400390625
2020-12-01 18:41:15.0850,0.2544575929641724,0.08930297940969467,0.2797898352146149,0.0980682373046875,-0.934814453125,0.0648040771484375
2020-12-01 18:41:15.1040,0.3685876131057739,0.2133391797542572,0.010744523257017136,0.32659912109375,-1.17230224609375,0.2677459716796875
2020-12-01 18:41:15.1350,0.3299584686756134,-0.612754762172699,0.01552303321659565,0.102752685546875,-1.004119873046875,0.05865478515625
2020-12-01 18:41:15.1510,0.09570761770009996,-1.125315546989441,0.273505300283432,-0.186798095703125,-0.9948883056640624,-0.0337982177734375
2020-12-01 18:41:15.1680,0.15232110023498535,-0.05345017462968826,0.17044471204280853,-0.1833648681640625,-1.1569061279296875,-0.1350555419921875
2020-12-01 18:41:15.1850,0.4374257922172545,-0.526075005531311,0.10175511986017227,0.0753021240234375,-1.207305908203125,-0.19683837890625
2020-12-01 18:41:15.2040,0.5192711353302002,-0.3053383529186249,-0.02257455140352249,-0.28460693359375,-0.8893585205078125,0.1036834716796875
2020-12-01 18:41:15.2350,0.520849347114563,0.4167503416538239,-0.01805463433265686,-0.3172454833984375,-1.08697509765625,0.102935791015625
2020-12-01 18:41:15.2510,0.4169876277446747,0.06977321952581406,0.09376191347837448,0.08197021484375,-1.074310302734375,0.1033172607421875
2020-12-01 18:41:15.2680,0.2785448133945465,-0.851634681224823,0.2020561546087265,0.189300537109375,-0.9705657958984376,0.1114501953125
2020-12-01 18:41:15.2850,0.2516753673553467,-0.14334118366241455,0.12731029093265533,-0.0888671875,-0.9770355224609376,0.1264190673828125
2020-12-01 18:41:15.3040,0.3158881962299347,0.5658429265022278,0.1470797210931778,-0.2524566650390625,-1.0514678955078125,0.099578857421875
2020-12-01 18:41:15.3350,0.3220872282981873,0.4061136841773987,0.15579412877559662,-0.078094482421875,-1.0270843505859375,0.0350494384765625
2020-12-01 18:41:15.3510,0.3127922713756561,0.029557891190052032,0.18262439966201785,0.065277099609375,-1.02398681640625,-0.005126953125
2020-12-01 18:41:15.3680,0.3266662657260895,0.3141813576221466,0.13904151320457458,-0.10809326171875,-1.027557373046875,0.11090087890625
2020-12-01 18:41:15.3850,0.324718177318573,0.41503873467445374,0.15002144873142242,-0.14434814453125,-1.0086822509765625,0.115142822265625
2020-12-01 18:41:15.4040,0.324718177318573,0.41503873467445374,0.15002144873142242,-0.066131591796875,-0.9850311279296876,0.105438232421875
2020-12-01 18:41:15.4350,0.17916123569011688,0.16619989275932312,0.10465530306100844,-0.0566253662109375,-1.0129547119140625,0.1463470458984375
2020-12-01 18:41:15.4510,0.10174740105867386,0.00884888507425785,0.07308299839496613,-0.080047607421875,-1.02593994140625,0.1568450927734375
2020-12-01 18:41:15.4680,0.058329351246356964,-0.024922925978899,0.055755142122507095,-0.071441650390625,-1.02496337890625,0.1322784423828125
2020-12-01 18:41:15.4850,0.058567438274621964,-0.10566810518503188,-0.02869928814470768,-0.08953857421875,-1.019744873046875,0.076904296875
2020-12-01 18:41:15.5040,0.058567438274621964,-0.10566810518503188,-0.02869928814470768,-0.1668548583984375,-0.988555908203125,0.0796051025390625
2020-12-01 18:41:15.5350,0.07655549794435501,-0.02215510234236717,-0.06415314972400665,-0.0689849853515625,-0.9903106689453124,0.0937347412109375
2020-12-01 18:41:15.5510,0.03304396942257881,-0.24288907647132876,-0.09113550186157228,-0.0287322998046875,-0.9893341064453124,0.1097564697265625
2020-12-01 18:41:15.5680,0.006844590418040752,-0.18537811934947968,-0.144859179854393,-0.134185791015625,-0.9944305419921876,0.126617431640625
2020-12-01 18:41:15.5840,0.006844590418040752,-0.18537811934947968,-0.144859179854393,-0.1826171875,-0.9575958251953124,0.129730224609375
2020-12-01 18:41:15.6040,0.0021997711155563593,0.035313781350851066,-0.23559175431728366,-0.1463165283203125,-0.9624176025390624,0.1826324462890625
2020-12-01 18:41:15.6340,-0.04206382855772972,0.13127200305461886,-0.24258413910865784,-0.0350189208984375,-0.989501953125,0.1591644287109375
2020-12-01 18:41:15.6510,-0.09507085382938384,-0.2629394829273224,-0.1831360012292862,0.015777587890625,-1.0336151123046875,0.1357269287109375
2020-12-01 18:41:15.6680,-0.104520283639431,-0.3014219105243683,-0.19329862296581268,-0.0377197265625,-0.96630859375,0.1057281494140625
2020-12-01 18:41:15.6840,-0.104520283639431,-0.3014219105243683,-0.19329862296581268,-0.1000213623046875,-1.008148193359375,0.110748291015625
2020-12-01 18:41:15.7040,-0.06763150542974472,0.005479986313730478,-0.1878034621477127,-0.0634613037109375,-0.9658966064453124,0.13165283203125
2020-12-01 18:41:15.7350,-0.1410926729440689,0.12530972063541412,-0.18341057002544406,-0.02447509765625,-0.9733428955078124,0.149688720703125
2020-12-01 18:41:15.7510,-0.1936006247997284,-0.10472534596920012,-0.20722775161266327,0.0152587890625,-1.00518798828125,0.072906494140625
2020-12-01 18:41:15.7680,-0.20586422085762024,-0.11745259165763855,-0.2532818019390106,-0.0438690185546875,-1.04241943359375,0.0888519287109375
2020-12-01 18:41:15.7850,-0.20586422085762024,-0.11745259165763855,-0.2532818019390106,-0.063873291015625,-1.05487060546875,0.0866851806640625
2020-12-01 18:41:15.8040,-0.20443542301654816,-0.10651499032974243,-0.29670676589012146,-0.063873291015625,-1.05487060546875,0.0866851806640625
2020-12-01 18:41:15.8350,-0.20972099900245667,-0.22449035942554474,-0.46376687288284296,-0.0995330810546875,-0.952392578125,0.0965118408203125
2020-12-01 18:41:15.8510,-0.3096883594989777,-0.0648098886013031,-0.6645833253860474,-0.150604248046875,-0.9658050537109376,0.1828155517578125
2020-12-01 18:41:15.8680,-0.3300564587116241,-0.2978886663913727,-0.9587451815605164,-0.2277984619140625,-1.0975799560546875,0.1580657958984375
2020-12-01 18:41:15.8850,-0.3300564587116241,-0.2978886663913727,-0.9587451815605164,-0.2277984619140625,-1.0975799560546875,0.1580657958984375
2020-12-01 18:41:15.9040,-0.4058540165424347,-0.2643541693687439,-1.4763505458831787,-0.344696044921875,-0.9976806640625,0.1505279541015625
2020-12-01 18:41:15.9350,-0.2423263490200043,-0.0718800500035286,-2.3986873626708984,-0.52996826171875,-1.259796142578125,0.1740264892578125
2020-12-01 18:41:15.9520,-0.3786298632621765,-0.20212966203689572,-2.4229769706726074,-0.4118194580078125,-1.5455780029296875,0.404815673828125
2020-12-01 18:41:15.9680,-0.37281298637390137,-0.7151732444763184,-2.4200592041015625,-0.3975067138671875,-1.9010009765625,0.1450958251953125
2020-12-01 18:41:15.9850,-0.37281298637390137,-0.7151732444763184,-2.4200592041015625,-0.3975067138671875,-1.9010009765625,0.1450958251953125
2020-12-01 18:41:16.0030,-0.4324195981025696,-0.4895984530448914,-2.4504196643829346,-0.2510986328125,-1.6560516357421875,0.2860107421875
2020-12-01 18:41:16.0350,0.1890663206577301,0.7548370361328125,-1.4400689601898191,0.199615478515625,-1.1818695068359375,0.1563568115234375
2020-12-01 18:41:16.0520,0.3415488004684448,-0.1395411193370819,-0.05668378621339797,0.11651611328125,-1.1953277587890625,0.0635833740234375
2020-12-01 18:41:16.0680,0.3415488004684448,-0.1395411193370819,-0.05668378621339797,-0.892974853515625,-0.8930206298828125,-0.0055389404296875
2020-12-01 18:41:16.0850,0.38536179065704346,-0.035880502313375466,0.5845020413398743,-0.892974853515625,-0.8930206298828125,-0.0055389404296875
2020-12-01 18:41:16.1040,0.4730101525783539,0.6520307660102844,1.5493954420089722,-0.4102935791015625,-0.541259765625,0.0908355712890625
2020-12-01 18:41:16.1350,0.3701852560043335,-0.7602925300598145,3.113000869750977,-0.0874481201171875,-0.9300537109375,-0.20556640625
2020-12-01 18:41:16.1510,0.4934331476688385,0.8643584847450256,3.541680335998535,-0.296051025390625,-0.7729644775390625,-0.0410003662109375
2020-12-01 18:41:16.1680,0.4934331476688385,0.8643584847450256,3.541680335998535,-0.10015869140625,-0.99200439453125,-0.0869598388671875
2020-12-01 18:41:16.1840,0.5015808343887329,1.8961464166641235,3.812833070755005,-0.10015869140625,-0.99200439453125,-0.0869598388671875
2020-12-01 18:41:16.2040,0.34468626976013184,2.249778509140014,4.027214527130127,0.194854736328125,-1.0804443359375,-0.1385498046875
2020-12-01 18:41:16.2350,-0.2907237112522125,2.887378931045532,3.9712259769439697,0.4446258544921875,-1.2524261474609375,0.0218505859375
2020-12-01 18:41:16.2510,-0.498327761888504,1.9688504934310915,3.493199348449707,0.6045379638671875,-1.3245086669921875,-0.0122528076171875
2020-12-01 18:41:16.2680,-0.498327761888504,1.9688504934310915,3.493199348449707,0.8664398193359375,-1.279571533203125,0.2111358642578125
2020-12-01 18:41:16.2850,-0.5683625340461731,1.491743803024292,2.8909451961517334,0.8664398193359375,-1.279571533203125,0.2111358642578125
2020-12-01 18:41:16.3040,-0.5770582556724548,0.71684330701828,2.2049245834350586,0.81121826171875,-1.1618804931640625,0.286407470703125
2020-12-01 18:41:16.3350,-0.3276292681694031,-0.4520460367202759,1.4020615816116333,0.6604461669921875,-0.90887451171875,0.1699676513671875
2020-12-01 18:41:16.3510,-0.1308688074350357,-0.784753680229187,0.977830708026886,0.614227294921875,-0.87139892578125,0.1776580810546875
2020-12-01 18:41:16.3680,-0.1308688074350357,-0.784753680229187,0.977830708026886,0.428741455078125,-0.8130035400390625,0.1208038330078125
2020-12-01 18:41:16.3850,0.03948189690709114,-0.7645450830459595,0.483309417963028,0.428741455078125,-0.8130035400390625,0.1208038330078125
2020-12-01 18:41:16.4040,0.0946679189801216,-0.9512571692466736,0.08898153901100159,0.4377288818359375,-0.8046875,0.1014251708984375
2020-12-01 18:41:16.4350,-0.0273237656801939,-1.2143816947937012,-0.4639844298362732,0.306488037109375,-0.897491455078125,0.026824951171875
2020-12-01 18:41:16.4520,-0.04532567039132118,-0.5373060703277588,-0.7836750745773315,0.2367401123046875,-0.9223480224609376,-0.0159454345703125
2020-12-01 18:41:16.4680,-0.04532567039132118,-0.5373060703277588,-0.7836750745773315,0.2367401123046875,-0.9223480224609376,-0.0159454345703125
2020-12-01 18:41:16.4850,-0.06801766902208327,0.14679290354251862,-1.1040347814559937,0.213897705078125,-1.0065155029296875,-0.059478759765625
2020-12-01 18:41:16.5040,-0.048779789358377464,0.7345413565635681,-1.4507628679275513,0.1875762939453125,-0.986419677734375,-0.0475006103515625
2020-12-01 18:41:16.5350,-0.034855451434850686,0.4135750532150269,-1.8996561765670776,0.34234619140625,-1.05072021484375,0.0380859375
2020-12-01 18:41:16.5520,0.008502940647304058,0.11787017434835435,-2.0398871898651123,0.33697509765625,-1.1026763916015625,0.084930419921875
2020-12-01 18:41:16.5680,0.008502940647304058,0.11787017434835435,-2.0398871898651123,0.33697509765625,-1.1026763916015625,0.084930419921875
2020-12-01 18:41:16.5850,0.0523095428943634,-0.2838362455368042,-2.2109408378601074,0.359222412109375,-1.170074462890625,0.0904998779296875
2020-12-01 18:41:16.6040,0.07361749559640884,-0.7458089590072632,-2.364185094833374,0.3276214599609375,-1.249786376953125,0.101165771484375
2020-12-01 18:41:16.6350,0.07932598143815994,-1.5079590082168581,-2.742991209030152,0.3017730712890625,-1.3967437744140625,0.1574554443359375
2020-12-01 18:41:16.6520,0.07932598143815994,-1.5079590082168581,-2.742991209030152,0.2412109375,-1.4625396728515625,0.162506103515625
2020-12-01 18:41:16.6680,0.04418636858463288,-1.8575292825698853,-2.9220564365386963,0.2412109375,-1.4625396728515625,0.162506103515625
2020-12-01 18:41:16.6850,0.0021313277538865805,-2.052574872970581,-3.0201594829559326,0.2098846435546875,-1.5277557373046875,0.19549560546875
2020-12-01 18:41:16.7040,-0.07919788360595703,-2.2263414859771733,-3.1296255588531494,0.19915771484375,-1.5548248291015625,0.191131591796875
2020-12-01 18:41:16.7350,-0.2431583255529404,-2.126535415649414,-3.222852230072021,0.1037139892578125,-1.5413055419921875,0.1685028076171875
2020-12-01 18:41:16.7520,-0.2431583255529404,-2.126535415649414,-3.222852230072021,0.0966949462890625,-1.5562896728515625,0.149658203125
2020-12-01 18:41:16.7680,-0.3002636730670929,-2.0250887870788574,-3.1965274810791016,0.0966949462890625,-1.5562896728515625,0.149658203125
2020-12-01 18:41:16.7850,-0.3260457515716553,-1.8854516744613647,-3.1401157379150386,0.094757080078125,-1.5787811279296875,0.1220245361328125
2020-12-01 18:41:16.8040,-0.4090668559074402,-1.7786607742309568,-3.0944199562072754,0.1378173828125,-1.5636444091796875,0.1570892333984375
2020-12-01 18:41:16.8350,-0.6230553388595581,-1.843341827392578,-3.233788013458252,0.1642913818359375,-1.4813079833984375,0.138641357421875
2020-12-01 18:41:16.8510,-0.6230553388595581,-1.843341827392578,-3.233788013458252,0.1812744140625,-1.4024200439453125,0.1137237548828125
2020-12-01 18:41:16.8680,-0.7587569355964661,-1.8088001012802124,-3.294551134109497,0.1812744140625,-1.4024200439453125,0.1137237548828125
2020-12-01 18:41:16.8850,-0.8536794781684875,-1.6854499578475952,-3.2816448211669917,0.2418975830078125,-1.371307373046875,0.065399169921875
2020-12-01 18:41:16.9040,-0.8624199628829956,-1.1141598224639893,-3.225989580154419,0.1760406494140625,-1.24359130859375,0.0419158935546875
2020-12-01 18:41:16.9350,-0.7637271881103516,0.02529097534716129,-2.906245470046997,0.1320953369140625,-1.0606689453125,0.017303466796875
2020-12-01 18:41:16.9520,-0.7637271881103516,0.02529097534716129,-2.906245470046997,0.1415557861328125,-0.9898681640625,0.032135009765625
2020-12-01 18:41:16.9680,-0.73708176612854,0.17318962514400482,-2.627247810363769,0.1415557861328125,-0.9898681640625,0.032135009765625
2020-12-01 18:41:16.9850,-0.7092578411102295,0.18129734694957733,-2.2943451404571533,0.1291961669921875,-0.9056243896484376,0.0511322021484375
2020-12-01 18:41:17.0040,-0.6654376387596129,0.15197941660881042,-1.9228044748306277,0.1022491455078125,-0.8077850341796875,0.06121826171875
2020-12-01 18:41:17.0350,-0.5676647424697876,0.5456942319869995,-0.9975066781044006,0.044830322265625,-0.6666259765625,0.0597991943359375
2020-12-01 18:41:17.0520,-0.5676647424697876,0.5456942319869995,-0.9975066781044006,0.044830322265625,-0.6666259765625,0.0597991943359375
2020-12-01 18:41:17.0680,-0.5034274458885193,0.6276412606239319,-0.4965809881687164,0.0175628662109375,-0.6107635498046875,0.023162841796875
2020-12-01 18:41:17.0850,-0.3513055741786957,0.8845529556274414,0.003831489942967892,-0.0440673828125,-0.5287933349609375,-0.00018310546875
2020-12-01 18:41:17.1030,-0.1826515644788742,1.2144349813461304,0.6107573509216309,-0.0367431640625,-0.5362701416015625,0.02911376953125
2020-12-01 18:41:17.1350,-0.035657864063978195,1.2248972654342651,1.6838533878326416,0.0116119384765625,-0.70465087890625,0.075927734375
2020-12-01 18:41:17.1510,-0.035657864063978195,1.2248972654342651,1.6838533878326416,0.0116119384765625,-0.70465087890625,0.075927734375
2020-12-01 18:41:17.1680,0.06894844025373459,1.3682986497879028,2.2205071449279785,0.0399627685546875,-0.8268890380859375,0.07513427734375
2020-12-01 18:41:17.1850,0.15612702071666718,1.4279677867889404,2.7307109832763667,0.0512847900390625,-0.844024658203125,0.0396881103515625
2020-12-01 18:41:17.2040,0.191332146525383,1.4591821432113647,3.2743427753448486,0.0868988037109375,-0.8834075927734375,0.0613861083984375
2020-12-01 18:41:17.2350,0.2508061230182648,1.5902464389801023,3.7687168121337886,0.108551025390625,-1.1302490234375,0.125335693359375
2020-12-01 18:41:17.2520,0.2882818579673767,1.8809165954589844,4.211518287658691,0.108551025390625,-1.1302490234375,0.125335693359375
2020-12-01 18:41:17.2680,0.26706233620643616,2.0196366310119633,4.623094081878662,0.139068603515625,-1.266510009765625,0.142486572265625
2020-12-01 18:41:17.2850,0.20909595489501956,1.9247509241104128,4.984309196472168,0.16595458984375,-1.45648193359375,0.1578826904296875
2020-12-01 18:41:17.3040,0.18298393487930295,1.8337432146072388,5.359703063964844,0.20050048828125,-1.5818939208984375,0.2115325927734375
2020-12-01 18:41:17.3350,0.12038633227348328,1.4228497743606567,5.644397735595702,0.2393951416015625,-1.8514556884765625,0.24737548828125
2020-12-01 18:41:17.3510,0.1197916492819786,1.0065973997116089,5.812629222869872,0.2393951416015625,-1.8514556884765625,0.24737548828125
2020-12-01 18:41:17.3690,0.18816351890563965,0.7808087468147278,5.812649250030518,0.204437255859375,-1.94219970703125,0.290985107421875
2020-12-01 18:41:17.3860,0.22462964057922366,0.5269634127616882,5.8102478981018075,0.223388671875,-2.0052032470703125,0.2950286865234375
2020-12-01 18:41:17.4050,0.2623586356639862,-0.06623201817274094,5.689600944519043,0.2127838134765625,-2.0363311767578125,0.2383270263671875
2020-12-01 18:41:17.4350,0.30685314536094666,-0.023622239008545882,5.329195499420166,0.0811614990234375,-1.9334259033203125,0.1729888916015625
2020-12-01 18:41:17.4520,0.31857559084892273,-0.04936781525611877,4.933225154876709,0.0811614990234375,-1.9334259033203125,0.1729888916015625
2020-12-01 18:41:17.4680,0.3006783425807953,0.21430164575576785,4.330705165863037,0.0922698974609375,-1.84295654296875,0.1345367431640625
2020-12-01 18:41:17.4850,0.173267662525177,0.9706748127937316,3.5168569087982178,0.0685882568359375,-1.67657470703125,0.0716400146484375
2020-12-01 18:41:17.5030,0.015992281958460808,1.3076616525650024,2.7022576332092285,0.2653045654296875,-1.483489990234375,0.0554656982421875
2020-12-01 18:41:17.5350,-0.05902177467942237,1.044170618057251,1.963788390159607,0.2578277587890625,-1.2750396728515625,0.03643798828125
2020-12-01 18:41:17.5510,0.02099982462823391,1.472734451293945,1.3018561601638794,0.1787567138671875,-1.058502197265625,0.1036224365234375
2020-12-01 18:41:17.5680,0.042507514357566833,1.3723005056381226,0.786467969417572,0.2520294189453125,-0.9252471923828124,0.0815582275390625
2020-12-01 18:41:17.5850,-0.035039741545915604,0.935527205467224,0.413379579782486,0.302154541015625,-0.8915863037109375,0.0600128173828125
2020-12-01 18:41:17.6030,-0.0588819570839405,0.6884468197822571,0.08709468692541122,0.2727203369140625,-0.8426666259765625,0.0565032958984375
2020-12-01 18:41:17.6350,-0.06324874609708786,0.4604333937168121,-0.18138469755649567,0.2626495361328125,-0.7725677490234375,0.059112548828125
2020-12-01 18:41:17.6520,-0.022521287202835083,0.3061167895793915,-0.4011801779270172,0.2470550537109375,-0.7354736328125,0.0725250244140625
2020-12-01 18:41:17.6680,0.004189152270555496,0.16231779754161835,-0.564782977104187,0.2455291748046875,-0.6958465576171875,0.0833282470703125
2020-12-01 18:41:17.6850,0.015790680423378944,-0.0988679900765419,-0.6691378355026245,0.22283935546875,-0.6884613037109375,0.086822509765625
2020-12-01 18:41:17.7040,0.04607854411005974,-0.24705106019973755,-0.8051471114158629,0.2112274169921875,-0.67974853515625,0.1019134521484375
2020-12-01 18:41:17.7350,0.08067673444747925,-0.3421914279460907,-0.8966245651245117,0.1917724609375,-0.676727294921875,0.111175537109375
2020-12-01 18:41:17.7520,0.1013987958431244,-0.4859107732772827,-0.9890993237495422,0.167083740234375,-0.7100982666015625,0.100128173828125
2020-12-01 18:41:17.7680,0.12467242032289505,-0.5573325157165527,-1.1204895973205566,0.1574249267578125,-0.7636260986328125,0.11871337890625
2020-12-01 18:41:17.7850,0.14282479882240295,-0.5853247046470642,-1.2810581922531128,0.1121673583984375,-0.84033203125,0.1261749267578125
2020-12-01 18:41:17.8030,0.15984319150447845,-0.6512576341629028,-1.5005892515182495,0.0488128662109375,-0.964630126953125,0.1197052001953125
2020-12-01 18:41:17.8350,0.19010601937770846,-0.6362528800964355,-1.771999716758728,0.0220947265625,-1.0162200927734375,0.104736328125
2020-12-01 18:41:17.8520,0.18627214431762693,-0.7393087148666382,-1.9706432819366453,0.04736328125,-1.0529022216796875,0.0949859619140625
2020-12-01 18:41:17.8680,0.1630762666463852,-0.8952455520629883,-2.233362197875977,-0.0187835693359375,-1.14581298828125,0.096832275390625
2020-12-01 18:41:17.8850,0.1287824809551239,-0.8889163136482239,-2.482466697692871,-0.080780029296875,-1.21282958984375,0.1046142578125
2020-12-01 18:41:17.9040,0.046111036092042916,-0.8629355430603027,-2.6772325038909908,-0.15283203125,-1.2531280517578125,0.0866546630859375
2020-12-01 18:41:17.9350,-0.012956811115145685,-0.5324788093566895,-2.803483247756958,-0.2309417724609375,-1.27752685546875,0.083984375
2020-12-01 18:41:17.9520,-0.03628237545490265,-0.14439445734024048,-2.856255054473877,-0.28265380859375,-1.2386932373046875,0.061248779296875
2020-12-01 18:41:17.9680,-0.052263736724853516,0.041301365941762924,-2.736574649810791,-0.3007659912109375,-1.221923828125,0.0382232666015625
2020-12-01 18:41:17.9850,-0.054713845252990716,0.13299347460269928,-2.5099117755889893,-0.3015289306640625,-1.1961212158203125,0.0426788330078125
2020-12-01 18:41:18.0030,-0.052562542259693146,0.20990130305290225,-2.292134523391724,-0.2729949951171875,-1.1858062744140625,0.07666015625
2020-12-01 18:41:18.0350,-0.01004970446228981,0.18166592717170715,-2.067943334579468,-0.2026824951171875,-1.2043609619140625,0.1002044677734375
2020-12-01 18:41:18.0520,0.0036586506757885218,0.019349463284015656,-1.784935712814331,-0.16021728515625,-1.2226409912109375,0.154052734375
2020-12-01 18:41:18.0680,0.03478141501545906,-0.16025225818157196,-1.5122741460800169,-0.14166259765625,-1.1842498779296875,0.18060302734375
2020-12-01 18:41:18.0850,0.06094084680080414,-0.2446446269750595,-1.1736303567886353,-0.0819091796875,-1.1366424560546875,0.1811676025390625
2020-12-01 18:41:18.1030,0.1175178438425064,-0.4454195499420166,-0.8917070031166077,-0.0482177734375,-1.0370941162109375,0.1319580078125
2020-12-01 18:41:18.1350,0.21092049777507785,-0.3897512257099152,-0.6729150414466858,-0.033203125,-0.99578857421875,0.146484375
2020-12-01 18:41:18.1510,0.2945847511291504,-0.35416525602340704,-0.534372866153717,-0.06414794921875,-1.0060577392578125,0.123992919921875
2020-12-01 18:41:18.1680,0.3987745344638825,-0.1681959331035614,-0.41168636083602905,-0.0083465576171875,-1.0648651123046875,0.1114959716796875
2020-12-01 18:41:18.1850,0.3538672626018524,-0.3323095142841339,-0.3527148962020874,0.0257415771484375,-1.042266845703125,0.1043243408203125
2020-12-01 18:41:18.2040,0.2975469827651977,-0.5484436750411987,-0.36242613196372986,0.0680694580078125,-0.93829345703125,0.061553955078125
2020-12-01 18:41:18.2350,0.2531134784221649,-0.6316256523132324,-0.3408899307250977,0.075714111328125,-0.81060791015625,0.0446014404296875
2020-12-01 18:41:18.2520,0.1777888983488083,-0.7381078600883484,-0.30062055587768555,0.057281494140625,-0.730438232421875,0.0108489990234375
2020-12-01 18:41:18.2680,-0.0377737432718277,-0.8872590065002441,-0.17988747358322146,0.0496826171875,-0.611053466796875,-0.098236083984375
2020-12-01 18:41:18.2850,0.4457630813121796,-0.775416910648346,-0.11640357226133348,0.004241943359375,-0.4759979248046875,-0.2533416748046875
2020-12-01 18:41:18.3030,0.18558743596076965,3.656272172927856,-1.4985396862030032,-0.0139007568359375,-0.1978912353515625,0.75518798828125
2020-12-01 18:41:18.3360,0.1321636289358139,-0.9289244413375854,-0.8327773809432983,0.1061248779296875,-1.5103912353515625,-0.229888916015625
2020-12-01 18:41:18.3530,0.00015046859334688634,0.2915934920310974,-1.057625412940979,-0.1420135498046875,-1.90423583984375,1.096435546875
2020-12-01 18:41:18.3690,0.22005806863307956,0.02214311994612217,-1.4123622179031372,-0.3860015869140625,-1.9073486328125,0.0623626708984375
2020-12-01 18:41:18.3860,0.2593444883823395,0.1488129198551178,-1.8198431730270384,0.2673187255859375,-0.8834686279296875,-0.205535888671875
2020-12-01 18:41:18.4050,0.3300335705280304,-0.3258854150772095,-1.6473413705825806,0.3036041259765625,-0.92486572265625,0.09771728515625
2020-12-01 18:41:18.4360,0.21005655825138086,-0.22043995559215546,-0.9407060146331788,0.8624420166015625,-0.7470245361328125,0.3341064453125
2020-12-01 18:41:18.4530,0.0824005976319313,-0.7587699890136719,-0.07835020124912262,1.16644287109375,-0.995574951171875,0.241119384765625
2020-12-01 18:41:18.4690,0.008333830162882805,-0.5007621645927429,0.4389049112796784,0.76409912109375,-1.1459503173828125,0.2785491943359375
2020-12-01 18:41:18.4860,-0.01932469569146633,0.0526733323931694,0.5119208097457886,0.42529296875,-1.1489105224609375,0.1284027099609375
2020-12-01 18:41:18.5040,-0.02535861916840076,0.7972132563591003,0.8071567416191101,0.401885986328125,-1.3735504150390625,0.231903076171875
2020-12-01 18:41:18.5350,-0.3106918334960937,0.5978801846504211,0.974543571472168,0.4414520263671875,-1.4153594970703125,0.3026885986328125
2020-12-01 18:41:18.5520,-0.6440460681915283,-0.033719081431627274,0.986282765865326,0.342376708984375,-1.4757080078125,0.44000244140625
2020-12-01 18:41:18.5690,-0.6744385957717896,-0.3088278770446777,0.6585986614227295,-0.154388427734375,-1.4824676513671875,0.4532623291015625
2020-12-01 18:41:18.5860,-0.5899050831794739,-0.3212786912918091,0.4387611150741577,-0.2310028076171875,-1.1268157958984375,0.1924285888671875
2020-12-01 18:41:18.6040,-0.5899050831794739,-0.3212786912918091,0.4387611150741577,-0.137115478515625,-0.99993896484375,-0.0209808349609375
2020-12-01 18:41:18.6350,-0.4111510515213013,-1.3629631996154783,-0.7237632870674133,-0.3359527587890625,-0.9112548828125,-0.0707244873046875
2020-12-01 18:41:18.6520,-0.3402143120765686,-1.3630399703979492,-1.3541665077209473,-0.3728485107421875,-0.827606201171875,0.0074920654296875
2020-12-01 18:41:18.6680,-0.3631920516490936,-1.4867507219314575,-2.1009838581085205,-0.32952880859375,-0.8961029052734375,-0.0194854736328125
2020-12-01 18:41:18.6850,-0.312391459941864,-1.4626541137695312,-2.8474278450012207,-0.3440093994140625,-0.8534393310546875,-0.11822509765625
2020-12-01 18:41:18.7040,-0.312391459941864,-1.4626541137695312,-2.8474278450012207,-0.2397918701171875,-0.9164276123046876,-0.0987396240234375
2020-12-01 18:41:18.7350,-0.2012321799993515,-0.8348631858825684,-4.156173706054688,-0.1798095703125,-1.0665283203125,-0.042022705078125
2020-12-01 18:41:18.7520,-0.15399914979934692,-0.9021431207656859,-4.205705642700194,-0.133453369140625,-1.258514404296875,0.1231231689453125
2020-12-01 18:41:18.7690,-0.17204447090625766,-0.4637841880321503,-4.147201061248778,-0.2893218994140625,-1.1937255859375,0.1188812255859375
2020-12-01 18:41:18.7850,-0.1393352597951889,0.8656740784645081,-3.928196430206299,-0.07672119140625,-1.27496337890625,0.425048828125
2020-12-01 18:41:18.8030,-0.1393352597951889,0.8656740784645081,-3.928196430206299,0.5578765869140625,-1.67236328125,0.6578521728515625
2020-12-01 18:41:18.8350,-0.4151042401790619,-0.28753137588500977,-1.839857816696167,0.6287384033203125,-1.46234130859375,0.4126129150390625
2020-12-01 18:41:18.8520,-0.6449995040893555,-1.6935254335403442,-1.1822108030319214,0.1302490234375,-0.88330078125,0.25445556640625
2020-12-01 18:41:18.8680,-0.2871382832527161,-0.2641224563121796,0.04508358985185623,0.1634521484375,-0.923614501953125,0.4241790771484375
2020-12-01 18:41:18.8850,-0.2871382832527161,-0.2641224563121796,0.04508358985185623,0.4935760498046875,-0.6746826171875,0.4228363037109375
2020-12-01 18:41:18.9040,-0.1397286057472229,0.7082905769348145,1.590801477432251,0.8052215576171875,-0.4483489990234375,0.3437347412109375
2020-12-01 18:41:18.9350,-0.4179445207118988,0.26457279920578003,4.612839221954347,0.7185211181640625,-0.4590606689453125,0.2564239501953125
2020-12-01 18:41:18.9510,0.0009100021561607716,0.7611703276634216,5.415048122406006,0.453826904296875,-0.541595458984375,0.134490966796875
2020-12-01 18:41:18.9680,0.3649396300315857,1.6552629470825195,6.053269386291504,0.3744354248046875,-0.4578857421875,0.0833587646484375
2020-12-01 18:41:18.9850,0.3649396300315857,1.6552629470825195,6.053269386291504,0.5936279296875,-0.4504547119140625,-0.1432037353515625
2020-12-01 18:41:19.0030,0.5577359795570374,1.8638995885849,6.862805843353272,0.5936279296875,-0.4504547119140625,-0.1432037353515625
2020-12-01 18:41:19.0350,0.8044109940528871,2.0458230972290044,6.0088233947753915,1.052825927734375,-1.223968505859375,-0.1696929931640625
2020-12-01 18:41:19.0520,0.38199183344841,2.2550783157348637,4.1718153953552255,1.254852294921875,-1.1133270263671875,0.0828399658203125
2020-12-01 18:41:19.0680,0.017896974459290504,-0.9590575695037842,3.1116547584533687,1.8699188232421875,-0.8659210205078125,0.15606689453125
2020-12-01 18:41:19.0850,0.017896974459290504,-0.9590575695037842,3.1116547584533687,1.96868896484375,-0.867950439453125,0.033203125
2020-12-01 18:41:19.1040,0.05619775876402855,-1.5350852012634275,2.022930860519409,1.96868896484375,-0.867950439453125,0.033203125
2020-12-01 18:41:19.1350,0.2482425570487976,1.7370353937149048,-0.18064726889133453,1.321014404296875,-0.38360595703125,-0.206878662109375
2020-12-01 18:41:19.1520,0.5442222952842712,1.6199358701705933,-0.9318467378616332,0.925140380859375,-0.0548248291015625,-0.1824951171875
2020-12-01 18:41:19.1680,1.6197873353958132,2.035320520401001,-2.115323543548584,0.78375244140625,0.132568359375,0.3183135986328125
2020-12-01 18:41:19.1850,1.6197873353958132,2.035320520401001,-2.115323543548584,0.78375244140625,0.132568359375,0.3183135986328125
2020-12-01 18:41:19.2030,-0.4297207593917847,0.07713419944047928,-2.4354071617126465,1.575225830078125,-0.48553466796875,0.8478851318359375
2020-12-01 18:41:19.2350,0.022659506648778915,2.8882274627685547,-3.7872714996337886,-2.139266967773437,-4.0787506103515625,0.75286865234375
2020-12-01 18:41:19.2520,0.5670466423034668,3.373286485671997,-3.20195746421814,-1.0010223388671875,-1.0512847900390625,-0.4408721923828125
2020-12-01 18:41:19.2680,0.8642942905426025,2.863457679748535,-1.3899396657943726,0.969940185546875,-0.4411163330078125,-0.57293701171875
2020-12-01 18:41:19.2850,0.8642942905426025,2.863457679748535,-1.3899396657943726,0.969940185546875,-0.4411163330078125,-0.57293701171875
2020-12-01 18:41:19.3040,0.3847138583660126,-0.4049131274223328,-1.6647952795028689,1.712188720703125,-0.256683349609375,0.21002197265625
2020-12-01 18:41:19.3350,-0.044978927820920944,0.7435210347175598,0.24718475341796875,0.53515625,-1.3032989501953125,0.993621826171875
2020-12-01 18:41:19.3520,-0.6439629793167114,-0.06586077064275743,0.22717243432998654,0.317108154296875,-0.8624725341796875,0.514617919921875
2020-12-01 18:41:19.3690,-0.4597380459308624,1.4000804424285889,0.7913942933082581,0.431884765625,-1.5387115478515625,0.290435791015625
2020-12-01 18:41:19.3850,-0.4597380459308624,1.4000804424285889,0.7913942933082581,0.431884765625,-1.5387115478515625,0.290435791015625
2020-12-01 18:41:19.4030,-0.366416871547699,0.6480586528778076,0.8499470353126526,0.42388916015625,-1.2512664794921875,-0.1654510498046875
2020-12-01 18:41:19.4350,-0.5161278247833252,-0.8805566430091858,0.915439784526825,0.1508331298828125,-1.583282470703125,0.2644195556640625
2020-12-01 18:41:19.4520,-0.633827269077301,-0.9682055115699768,0.5473344326019287,-0.29718017578125,-1.425079345703125,0.09393310546875
2020-12-01 18:41:19.4680,-0.633827269077301,-0.9682055115699768,0.5473344326019287,-0.680328369140625,-1.316192626953125,0.27874755859375
2020-12-01 18:41:19.4850,-0.4537259340286255,-0.797160804271698,-0.13876080513000488,-0.680328369140625,-1.316192626953125,0.27874755859375
2020-12-01 18:41:19.5040,-0.18031170964241028,-0.8004758954048157,-0.38214150071144093,-0.4346466064453125,-0.9830322265625,0.1461029052734375
2020-12-01 18:41:19.5350,-0.07792861759662628,-1.396100401878357,-2.0666828155517583,-0.0632476806640625,-0.4398651123046875,0.01654052734375
2020-12-01 18:41:19.5520,-0.136732816696167,-1.8130097389221191,-2.9428718090057373,-0.239349365234375,-0.66546630859375,0.2655792236328125
2020-12-01 18:41:19.5680,-0.136732816696167,-1.8130097389221191,-2.9428718090057373,-0.3628082275390625,-0.9389190673828124,0.1976470947265625
2020-12-01 18:41:19.5850,-0.05286427959799767,-2.308921337127685,-3.6194684505462646,-0.3628082275390625,-0.9389190673828124,0.1976470947265625
2020-12-01 18:41:19.6040,-0.019529493525624275,-1.8572221994400024,-4.0449814796447745,-0.47412109375,-1.076202392578125,0.2080078125
2020-12-01 18:41:19.6350,0.08529838919639587,-1.3284302949905396,-4.100873947143556,0.1921539306640625,-1.2951202392578125,0.0750274658203125
2020-12-01 18:41:19.6520,-0.025539182126522064,-0.9149463176727296,-3.905351877212525,-0.0047149658203125,-1.5076751708984375,0.0999908447265625
2020-12-01 18:41:19.6680,-0.025539182126522064,-0.9149463176727296,-3.905351877212525,-0.00384521484375,-1.93359375,0.4055938720703125
2020-12-01 18:41:19.6850,-0.10443559288978577,0.624043881893158,-3.0264828205108643,-0.00384521484375,-1.93359375,0.4055938720703125
2020-12-01 18:41:19.7040,-0.07566360384225845,0.3833242058753967,-2.041766405105591,0.0454254150390625,-1.51544189453125,0.224578857421875
2020-12-01 18:41:19.7350,0.21801196038722992,-0.2897830903530121,0.09323620051145554,0.3008880615234375,-0.79876708984375,0.1107635498046875
2020-12-01 18:41:19.7520,0.3169582486152649,-0.1182161197066307,1.3725641965866089,0.438629150390625,-0.6006622314453125,0.1373291015625
2020-12-01 18:41:19.7680,0.3169582486152649,-0.1182161197066307,1.3725641965866089,0.438629150390625,-0.6006622314453125,0.1373291015625
2020-12-01 18:41:19.7850,0.34855160117149353,-0.0689777359366417,2.5835299491882324,0.5545501708984375,-0.5251007080078125,0.1138458251953125
2020-12-01 18:41:19.8040,0.4223664402961731,-0.16459746658802032,3.2954807281494136,0.44927978515625,-0.5525360107421875,0.018585205078125
2020-12-01 18:41:19.8350,0.4195695817470551,0.9944341778755188,4.587874889373778,0.554534912109375,-0.628631591796875,0.0009307861328125
2020-12-01 18:41:19.8520,0.5657457113265991,2.1300337314605717,4.80232572555542,0.4314422607421875,-0.7278594970703125,0.100128173828125
2020-12-01 18:41:19.8690,0.5657457113265991,2.1300337314605717,4.80232572555542,0.4314422607421875,-0.7278594970703125,0.100128173828125
2020-12-01 18:41:19.8850,0.6718226075172424,2.169853687286377,4.7910428047180185,0.35809326171875,-0.7341766357421875,0.215301513671875
2020-12-01 18:41:19.9030,0.7271007895469666,0.8647182583808899,4.951933860778809,0.5666656494140625,-0.878448486328125,0.2760162353515625
2020-12-01 18:41:19.9350,0.6874484419822693,-0.9385456442832948,4.2648911476135245,0.74505615234375,-0.865386962890625,0.136138916015625
2020-12-01 18:41:19.9520,0.6874484419822693,-0.9385456442832948,4.2648911476135245,1.0045318603515625,-0.715850830078125,0.2097320556640625
2020-12-01 18:41:19.9680,0.9197524785995485,0.3316591680049896,3.311108112335205,1.0045318603515625,-0.715850830078125,0.2097320556640625
2020-12-01 18:41:19.9850,0.7813727855682373,0.3337737023830414,2.308141231536865,1.1258087158203125,-0.56622314453125,-0.0232696533203125
2020-12-01 18:41:20.0040,0.6282588839530945,0.5212234854698181,1.128028154373169,1.164154052734375,-0.3868560791015625,-0.247039794921875
2020-12-01 18:41:20.0350,-0.5640301108360289,-3.5060276985168457,-0.5761357545852661,1.4658203125,-0.2944488525390625,-0.8794097900390625
2020-12-01 18:41:20.0520,-0.5640301108360289,-3.5060276985168457,-0.5761357545852661,0.7178192138671875,-0.1695556640625,-0.6879425048828125
2020-12-01 18:41:20.0680,1.9917925596237185,-0.2958902418613434,-1.5117639303207395,0.7178192138671875,-0.1695556640625,-0.6879425048828125
2020-12-01 18:41:20.0850,-0.2523864507675171,8.069843292236326,-4.663948059082031,1.264923095703125,-0.2528228759765625,2.972900390625
2020-12-01 18:41:20.1040,-0.3536565899848938,-8.641411781311035,-3.2088212966918945,-0.91998291015625,-3.9578704833984375,-1.6322784423828125
2020-12-01 18:41:20.1350,0.9942650794982909,4.790624141693115,-3.2689242362976074,0.22637939453125,-0.7436981201171875,0.1948699951171875
2020-12-01 18:41:20.1520,0.9942650794982909,4.790624141693115,-3.2689242362976074,0.452239990234375,0.061431884765625,-0.7074127197265625
2020-12-01 18:41:20.1690,0.5996986031532288,-0.8465304970741272,-2.046410322189331,0.452239990234375,0.061431884765625,-0.7074127197265625
2020-12-01 18:41:20.1850,0.3496147394180298,-0.9335418343544006,-1.00533127784729,1.68927001953125,-0.6045379638671875,1.0678253173828125
2020-12-01 18:41:20.2040,0.13857385516166687,-0.8157581686973572,0.199496865272522,1.0509796142578125,-2.004425048828125,0.6693267822265625
2020-12-01 18:41:20.2350,-0.4959351718425751,0.05008314177393913,0.4384458065032959,0.8791046142578125,-1.1573333740234375,0.301116943359375
2020-12-01 18:41:20.2520,-0.4959351718425751,0.05008314177393913,0.4384458065032959,0.50054931640625,-1.315826416015625,0.4802703857421875
2020-12-01 18:41:20.2680,-0.6129763126373291,0.5520405173301697,0.5481038689613342,0.50054931640625,-1.315826416015625,0.4802703857421875
2020-12-01 18:41:20.2850,-0.6204153299331665,-0.5164085030555725,0.7351586818695068,0.312591552734375,-1.669708251953125,0.3289031982421875
2020-12-01 18:41:20.3040,-0.9118029475212096,-0.7905966639518738,1.1331864595413208,0.3552093505859375,-1.7439117431640625,0.4825286865234375
2020-12-01 18:41:20.3360,-0.4631596505641937,-0.9784773588180542,0.15346331894397736,-0.8767852783203125,-1.388916015625,-0.0058746337890625
2020-12-01 18:41:20.3530,-0.4631596505641937,-0.9784773588180542,0.15346331894397736,-0.61773681640625,-0.8656463623046875,-0.1327362060546875
2020-12-01 18:41:20.3690,-0.6060150861740112,-0.7333975434303284,-0.22104689478874207,-0.61773681640625,-0.8656463623046875,-0.1327362060546875
2020-12-01 18:41:20.3860,-0.6558034420013428,-0.4019983112812042,-1.0381412506103516,-0.5756683349609375,-0.856109619140625,-0.09613037109375
2020-12-01 18:41:20.4040,-0.5860288739204407,0.2541699707508087,-2.112759828567505,-0.3384246826171875,-0.80755615234375,0.0166473388671875
2020-12-01 18:41:20.4360,-0.6722633242607117,-1.6356631517410278,-3.711401462554932,0.038665771484375,-0.62841796875,-0.0052337646484375
2020-12-01 18:41:20.4530,-0.6722633242607117,-1.6356631517410278,-3.711401462554932,0.038665771484375,-0.62841796875,-0.0052337646484375
2020-12-01 18:41:20.4690,-0.6042382121086121,-1.7612347602844238,-4.168989658355713,-0.1519622802734375,-0.7734527587890625,0.0489349365234375
2020-12-01 18:41:20.4860,-0.3653667867183685,0.21078120172023773,-4.513885974884033,-0.299346923828125,-0.8822021484375,0.458953857421875
2020-12-01 18:41:20.5050,-0.3656248450279236,-0.03652125969529152,-4.504809379577637,-0.54248046875,-1.164337158203125,0.2507171630859375
2020-12-01 18:41:20.5360,-0.7576965093612671,-0.4047355055809021,-4.067580223083496,-0.00408935546875,-1.373809814453125,0.2085723876953125
2020-12-01 18:41:20.5530,-0.7576965093612671,-0.4047355055809021,-4.067580223083496,-0.00408935546875,-1.373809814453125,0.2085723876953125
2020-12-01 18:41:20.5690,-0.679323673248291,0.18136659264564514,-3.2794435024261475,0.1908416748046875,-1.9161224365234373,0.264129638671875
2020-12-01 18:41:20.5860,-0.5970298647880554,0.6523059010505676,-2.0630130767822266,0.56024169921875,-1.79437255859375,0.4434967041015625
2020-12-01 18:41:20.6040,-0.6608232259750366,-0.26597946882247925,-0.9753800630569458,0.5431976318359375,-0.87078857421875,0.1878509521484375
2020-12-01 18:41:20.6350,-0.40274932980537415,0.1874796152114868,-0.020076239481568336,0.4942169189453125,-0.5001373291015625,0.3957366943359375
2020-12-01 18:41:20.6520,-0.18956007063388824,1.2538479566574097,1.3752119541168213,0.4942169189453125,-0.5001373291015625,0.3957366943359375
2020-12-01 18:41:20.6680,-0.38615623116493225,1.0820748805999756,3.09506630897522,0.8245697021484375,-0.38720703125,0.369232177734375
2020-12-01 18:41:20.6850,-0.5127900838851929,-0.5694349408149719,4.2510952949523935,0.8787841796875,-0.4401397705078125,0.06829833984375
2020-12-01 18:41:20.7040,-0.2181842625141144,-1.3999491930007937,5.100854873657227,0.60125732421875,-0.4581756591796875,-0.003082275390625
2020-12-01 18:41:20.7350,0.41012227535247797,-0.8794615268707275,5.589749336242676,0.1192169189453125,-0.172271728515625,-0.0695648193359375
2020-12-01 18:41:20.7520,0.8246299624443054,-0.3604463338851929,6.093575954437256,0.1192169189453125,-0.172271728515625,-0.0695648193359375
2020-12-01 18:41:20.7680,1.0888054370880127,-0.5588688850402832,6.61997127532959,0.1517486572265625,-0.274261474609375,-0.281951904296875
2020-12-01 18:41:20.7850,1.3891165256500244,-0.3534419536590576,6.638106822967528,0.27020263671875,-0.590301513671875,-0.302520751953125
2020-12-01 18:41:20.8030,1.5564637184143066,1.1366350650787354,5.968510627746582,0.50665283203125,-0.99627685546875,-0.1201171875
2020-12-01 18:41:20.8350,1.4083237648010254,3.855051279067993,4.668757915496826,0.687530517578125,-1.1714019775390625,-0.0144500732421875
2020-12-01 18:41:20.8520,0.1418769806623459,2.0978591442108154,3.55731201171875,1.2919769287109375,-1.4322509765625,0.210906982421875
2020-12-01 18:41:20.8690,-0.14743445813655853,-1.2933449745178225,2.0445241928100586,2.16778564453125,-1.6136016845703125,-0.070648193359375
2020-12-01 18:41:20.8850,0.20838595926761627,0.5655704736709595,-0.039517048746347434,2.3089752197265625,-0.823028564453125,0.2215118408203125
2020-12-01 18:41:20.9040,0.3037811815738678,-0.6408606767654419,-1.009286403656006,1.4783935546875,0.0171356201171875,-0.4847259521484375
2020-12-01 18:41:20.9350,3.0653269290924072,0.4880852401256561,-1.4753196239471436,1.500457763671875,0.312713623046875,-0.0733489990234375
2020-12-01 18:41:20.9520,-1.0533007383346558,6.672292232513428,-3.9994885921478267,1.9698638916015625,0.1220245361328125,3.215560913085937
2020-12-01 18:41:20.9680,-0.5668429136276245,-11.059804916381836,-2.568470001220703,0.6644287109375,-4.418746948242188,-2.87261962890625
2020-12-01 18:41:20.9850,0.27781882882118225,-1.7106846570968628,-4.825292110443115,-1.877349853515625,-3.0923614501953125,0.6733856201171875
2020-12-01 18:41:21.0030,0.8007600903511047,8.855130195617676,-3.713674068450928,-0.6418609619140625,-0.547882080078125,1.7495574951171875
2020-12-01 18:41:21.0350,0.6358294486999512,-2.320789098739624,-3.61260724067688,0.4647674560546875,-0.2485198974609375,-1.286285400390625
2020-12-01 18:41:21.0520,0.3122180700302124,-1.3635072708129885,-1.4053804874420166,2.6546630859375,-0.985992431640625,0.707305908203125
2020-12-01 18:41:21.0680,-0.09691935777664183,-1.5194908380508425,-0.1353415846824646,1.04718017578125,-1.0694427490234375,0.425506591796875
2020-12-01 18:41:21.0850,-0.3822762668132782,0.03337420150637626,-0.6880348324775696,0.2006072998046875,-0.8533477783203125,0.6546630859375
2020-12-01 18:41:21.1030,-0.5315954685211182,0.2403388321399689,-0.038467232137918465,0.6568450927734375,-1.3446807861328125,0.3807830810546875
2020-12-01 18:41:21.1350,-0.7339634895324707,0.6900618076324463,0.8343406915664673,0.7717132568359375,-1.191162109375,0.208221435546875
2020-12-01 18:41:21.1520,-0.8706757426261902,1.0036815404891968,1.7573387622833252,0.6822662353515625,-1.437103271484375,0.300384521484375
2020-12-01 18:41:21.1690,-0.8568550348281859,2.9651217460632324,0.8581405282020569,0.3413543701171875,-2.6443328857421875,0.62969970703125
2020-12-01 18:41:21.1850,-0.5447732806205751,-3.8232808113098153,0.6160315275192261,-0.43121337890625,-2.1275634765625,-0.9771728515625
2020-12-01 18:41:21.2030,-0.5038466453552246,-0.2607508897781372,0.2427825480699539,-0.5048370361328125,-1.1918182373046875,0.2486419677734375
2020-12-01 18:41:21.2350,-0.3406936824321747,-1.397435426712036,-0.4491599500179291,-1.1279144287109375,-1.05999755859375,-0.455596923828125
2020-12-01 18:41:21.2520,-0.3301329016685486,1.293890357017517,-1.6109179258346558,-0.70196533203125,-0.764617919921875,0.2636871337890625
2020-12-01 18:41:21.2680,-0.3236963152885437,1.9302117824554443,-3.3099079132080083,-0.009735107421875,-0.621337890625,0.1184539794921875
2020-12-01 18:41:21.2850,-0.5496663451194763,0.6708889007568359,-5.084604263305664,0.5226898193359375,-0.611480712890625,-0.060882568359375
2020-12-01 18:41:21.3040,-0.7129386067390442,-0.4814382791519165,-5.621591091156006,0.246856689453125,-0.8585357666015625,-0.07171630859375
2020-12-01 18:41:21.3350,-0.6267454028129578,-0.7180808782577515,-6.008599281311035,-0.6235809326171875,-1.4117584228515625,0.1327667236328125
2020-12-01 18:41:21.3520,-0.533854067325592,-0.5193225145339966,-5.732561111450195,-0.5656280517578125,-1.7553863525390625,0.376373291015625
2020-12-01 18:41:21.3680,-0.5213867425918579,-1.5504695177078247,-5.550056457519531,-0.516876220703125,-1.65106201171875,0.199462890625
2020-12-01 18:41:21.3850,-0.4367160797119141,-0.9848760962486268,-5.18208122253418,-0.3227996826171875,-1.581573486328125,0.230926513671875
2020-12-01 18:41:21.4040,-0.3009750247001648,-0.39730527997016907,-4.007156848907472,-0.048797607421875,-1.81536865234375,0.35748291015625
2020-12-01 18:41:21.4350,-0.18192265927791595,-0.3497569262981415,-2.721341848373413,0.1062774658203125,-1.6466217041015625,0.337615966796875
2020-12-01 18:41:21.4520,-0.13670219480991366,-0.1930509507656097,-1.3248355388641355,0.2032470703125,-1.024658203125,0.25091552734375
2020-12-01 18:41:21.4680,0.16407150030136108,0.4585185647010803,0.2697449326515198,0.332000732421875,-0.676055908203125,0.1544189453125
2020-12-01 18:41:21.4850,0.4547094404697418,1.1444060802459717,2.1548795700073238,0.5742034912109375,-0.385711669921875,0.19854736328125
2020-12-01 18:41:21.5040,0.5356999039649963,0.753825306892395,3.9453439712524414,0.737396240234375,-0.060333251953125,0.17254638671875
2020-12-01 18:41:21.5350,0.6226875185966492,-0.034515634179115295,5.1234211921691895,0.7331695556640625,0.1282196044921875,0.112274169921875
2020-12-01 18:41:21.5520,0.7961711883544922,-0.49530428647995,6.072579383850098,0.444183349609375,-0.0977020263671875,0.053070068359375
2020-12-01 18:41:21.5680,1.1309627294540403,-0.10620366781949996,6.67648983001709,0.0798187255859375,-0.3288421630859375,-0.0628814697265625
2020-12-01 18:41:21.5850,1.4210184812545776,0.8902904987335205,7.181039333343506,-0.1113433837890625,-0.504852294921875,-0.13372802734375
2020-12-01 18:41:21.6040,1.5600004196166992,1.24470317363739,7.737558364868164,0.04534912109375,-0.8314971923828125,-0.068328857421875
2020-12-01 18:41:21.6360,1.7775497436523438,1.1791883707046509,7.602099895477295,0.2094879150390625,-1.09588623046875,-0.2881622314453125
2020-12-01 18:41:21.6520,1.5605703592300415,0.6893960237503052,7.403884887695312,0.6820068359375,-1.266632080078125,-0.0976409912109375
2020-12-01 18:41:21.6680,0.7572450637817383,-0.6998006701469421,6.709251403808594,1.07159423828125,-1.74664306640625,-0.0788726806640625
2020-12-01 18:41:21.6850,0.4473298192024231,0.026016952469944957,4.7793846130371085,1.463226318359375,-2.1514434814453125,0.1198272705078125
2020-12-01 18:41:21.7050,0.7983989119529724,0.9530486464500428,1.657959222793579,2.173248291015625,-1.5093841552734375,0.3282623291015625
2020-12-01 18:41:21.7360,0.5733698010444641,-0.4361882209777832,-0.30847954750061035,1.9893035888671875,-0.2806854248046875,-0.1174163818359375
2020-12-01 18:41:21.7520,-0.055910404771566384,-1.7680723667144775,-0.5811715126037598,2.109954833984375,0.308807373046875,-0.549774169921875
2020-12-01 18:41:21.7680,-0.7628105282783508,-3.0953993797302246,-0.9572024345397948,1.3361053466796875,0.0669708251953125,-0.94390869140625
2020-12-01 18:41:21.7850,0.2422003895044327,2.0582048892974854,-2.7765681743621826,0.7286529541015625,-0.22998046875,0.1237945556640625
2020-12-01 18:41:21.8040,0.8136140704154968,13.969894409179688,-5.425047874450684,3.278305053710937,-2.0751495361328125,2.2371826171875
2020-12-01 18:41:21.8360,-1.0806052684783936,-15.533395767211914,-3.794591188430786,-1.0224151611328125,-4.439605712890625,-2.639984130859375
2020-12-01 18:41:21.8520,0.17222316563129425,4.164054870605469,-3.342138767242432,0.6313934326171875,-1.540771484375,0.76177978515625
2020-12-01 18:41:21.8680,0.5908159017562866,-3.9710676670074463,-3.7330124378204346,-1.14892578125,-1.173248291015625,-2.19268798828125
2020-12-01 18:41:21.8850,0.6404167413711548,-0.2593553960323334,-2.4200639724731445,0.807098388671875,-1.15203857421875,0.6783599853515625
2020-12-01 18:41:21.9040,0.6404167413711548,-0.2593553960323334,-2.4200639724731445,1.03369140625,-0.770782470703125,0.233184814453125
2020-12-01 18:41:21.9350,-0.3023465573787689,-0.41375482082366943,-0.6001875400543213,1.1028289794921875,-0.83599853515625,0.664093017578125
2020-12-01 18:41:21.9520,-0.8046344518661499,-0.18248219788074493,0.1739390343427658,1.39044189453125,-1.012298583984375,0.5441741943359375
2020-12-01 18:41:21.9680,-1.124216914176941,0.7029011249542236,1.8098297119140625,0.97601318359375,-1.14593505859375,0.4928436279296875
2020-12-01 18:41:21.9850,-1.0490287542343142,3.148458242416382,1.6583237648010254,0.2355194091796875,-2.135101318359375,0.5383453369140625
2020-12-01 18:41:22.0040,-1.0490287542343142,3.148458242416382,1.6583237648010254,-0.3882293701171875,-2.788299560546875,-0.4899139404296875
2020-12-01 18:41:22.0350,-0.7800827622413635,-2.1433475017547607,0.3828834593296051,-0.3205718994140625,-1.5387115478515625,-0.46258544921875
2020-12-01 18:41:22.0520,-0.7645349502563477,-1.8268594741821291,-0.07302946597337723,-0.933685302734375,-1.032501220703125,-0.1340179443359375
2020-12-01 18:41:22.0680,-0.5979547500610352,0.6039905548095703,-0.617081344127655,-1.2291412353515625,-0.96331787109375,0.4842529296875
2020-12-01 18:41:22.0850,-0.5979547500610352,0.6039905548095703,-0.617081344127655,-0.6213531494140625,-0.7638397216796875,0.1510467529296875
2020-12-01 18:41:22.1040,-0.4927146136760712,0.8531337976455688,-1.6510426998138428,0.2118682861328125,-0.588470458984375,0.1417694091796875
2020-12-01 18:41:22.1350,-0.5742872357368469,-1.2872769832611084,-3.434908390045166,0.4295196533203125,-0.4828338623046875,-0.2125701904296875
2020-12-01 18:41:22.1520,-0.9037125706672668,-2.2177224159240723,-4.1255202293396005,0.013916015625,-0.633819580078125,-0.128173828125
2020-12-01 18:41:22.1680,-0.8673071265220642,-0.9109776616096495,-5.01459264755249,-0.5083770751953125,-1.0666656494140625,0.305328369140625
2020-12-01 18:41:22.1850,-0.8673071265220642,-0.9109776616096495,-5.01459264755249,-0.831634521484375,-1.38446044921875,0.4703826904296875
2020-12-01 18:41:22.2030,-0.5771059393882751,0.1028752475976944,-4.928795337677002,-0.831634521484375,-1.38446044921875,0.4703826904296875
2020-12-01 18:41:22.2350,-0.6043711304664612,-0.5675446391105652,-4.670256614685059,-0.3792572021484375,-1.12701416015625,0.1038055419921875
2020-12-01 18:41:22.2520,-0.8514067530632019,-1.1222083568572998,-3.865345478057861,-0.095489501953125,-1.652740478515625,0.0455780029296875
2020-12-01 18:41:22.2690,-0.5403367280960083,-0.3758476674556732,-2.7463126182556152,0.2633514404296875,-2.197113037109375,0.2909088134765625
2020-12-01 18:41:22.2850,-0.5403367280960083,-0.3758476674556732,-2.7463126182556152,0.4370269775390625,-1.3960723876953125,0.4232635498046875
2020-12-01 18:41:22.3040,-0.4832457602024078,0.6059674024581909,-1.6959800720214844,0.4370269775390625,-1.3960723876953125,0.4232635498046875
2020-12-01 18:41:22.3350,-0.10002247244119644,2.324570178985596,0.8454567193984985,0.4110260009765625,-0.685699462890625,0.3460845947265625
2020-12-01 18:41:22.3520,-0.1037767305970192,2.8406307697296143,2.7030580043792725,0.7581024169921875,-0.5251617431640625,0.563446044921875
2020-12-01 18:41:22.3680,-0.3693748414516449,1.2293319702148438,4.4345431327819815,1.0157928466796875,-0.375640869140625,0.455352783203125
2020-12-01 18:41:22.3850,-0.3693748414516449,1.2293319702148438,4.4345431327819815,0.9371185302734376,-0.3734588623046875,0.211212158203125
2020-12-01 18:41:22.4040,-0.3543245196342468,-0.8030767440795898,5.204477310180664,0.9371185302734376,-0.3734588623046875,0.211212158203125
2020-12-01 18:41:22.4350,0.7282600402832031,-0.2646257877349853,6.283360958099365,0.172088623046875,-0.4162750244140625,0.082244873046875
2020-12-01 18:41:22.4520,1.048452377319336,0.9138088822364808,6.707081317901611,0.053070068359375,-0.367645263671875,0.0714263916015625
2020-12-01 18:41:22.4680,1.1015316247940063,0.3510389924049377,7.0846009254455575,0.1896209716796875,-0.4624176025390625,-0.2305755615234375
2020-12-01 18:41:22.4850,1.1015316247940063,0.3510389924049377,7.0846009254455575,0.1896209716796875,-0.4624176025390625,-0.2305755615234375
2020-12-01 18:41:22.5030,1.241653561592102,0.3903411030769348,6.976103782653809,0.530120849609375,-0.7709197998046875,-0.251434326171875
2020-12-01 18:41:22.5350,0.6823479533195496,3.7316684722900386,4.863580226898193,1.2367401123046875,-1.525115966796875,-0.0405731201171875
2020-12-01 18:41:22.5520,-0.3194618821144104,0.9022251963615416,2.751169919967652,2.037811279296875,-1.7459869384765625,0.314849853515625
2020-12-01 18:41:22.5690,0.22303521633148196,-0.0023110911715775733,-0.16598151624202728,2.659515380859375,-1.2807769775390625,-0.0024871826171875
2020-12-01 18:41:22.5860,0.22303521633148196,-0.0023110911715775733,-0.16598151624202728,2.659515380859375,-1.2807769775390625,-0.0024871826171875
2020-12-01 18:41:22.6040,0.2477927505970001,-1.2049877643585205,-0.8584883213043213,1.972259521484375,-0.1666107177734375,-0.2298736572265625
2020-12-01 18:41:22.6350,-2.487904787063598,2.5361769199371342,-3.662863492965698,1.45440673828125,0.7059783935546875,1.8700103759765625
2020-12-01 18:41:22.6520,0.6326549649238586,8.690097808837889,-4.004699230194092,4.7198333740234375,-2.541259765625,-0.611785888671875
2020-12-01 18:41:22.6690,-1.0412101745605469,-15.915899276733398,-4.24822998046875,-1.2149810791015625,-4.6124114990234375,-3.2381744384765625
2020-12-01 18:41:22.6860,-1.0412101745605469,-15.915899276733398,-4.24822998046875,-1.2149810791015625,-4.6124114990234375,-3.2381744384765625
2020-12-01 18:41:22.7040,-0.0934242233633995,5.137056827545166,-5.530162811279297,-0.3693695068359375,-1.5875244140625,2.900497436523437
2020-12-01 18:41:22.7350,0.08653515577316284,-0.3902694880962372,-2.8752155303955083,1.432098388671875,-0.61883544921875,0.6941680908203125
2020-12-01 18:41:22.7520,-0.15306811034679413,-1.284402847290039,-1.2783372402191162,1.4188079833984375,-0.5410003662109375,0.1930084228515625
2020-12-01 18:41:22.7680,-0.15306811034679413,-1.284402847290039,-1.2783372402191162,1.3116607666015625,-0.7424468994140625,0.5865478515625
2020-12-01 18:41:22.7850,-0.629496693611145,-0.033242110162973404,-0.1972358375787735,1.3116607666015625,-0.7424468994140625,0.5865478515625
2020-12-01 18:41:22.8040,-0.7498558759689331,0.1887275725603104,0.8152420520782471,0.9910430908203124,-1.281494140625,0.2950439453125
2020-12-01 18:41:22.8350,-0.9247712492942809,3.0656135082244877,2.236491680145264,0.4248809814453125,-2.0417022705078125,0.090606689453125
2020-12-01 18:41:22.8520,-0.7026556134223938,5.0131940841674805,-0.013630591332912443,-0.2447357177734375,-3.1468505859375,0.70166015625
2020-12-01 18:41:22.8690,-0.7026556134223938,5.0131940841674805,-0.013630591332912443,-0.826507568359375,-2.1302032470703125,-1.8742218017578125
2020-12-01 18:41:22.8850,-0.4028206765651703,-6.977752208709718,0.5745530128479004,-0.826507568359375,-2.1302032470703125,-1.8742218017578125
2020-12-01 18:41:22.9030,-0.3498243093490601,-0.15549026429653168,0.027528829872608185,-0.483551025390625,-1.00750732421875,0.8800506591796875
2020-12-01 18:41:22.9350,-0.2372562289237976,3.37170147895813,-2.2038490772247314,-0.2625579833984375,-0.458953857421875,0.418060302734375
2020-12-01 18:41:22.9520,-0.17104578018188474,0.8251367807388306,-3.392671823501587,0.438262939453125,-0.559417724609375,0.041046142578125
2020-12-01 18:41:22.9690,-0.17104578018188474,0.8251367807388306,-3.392671823501587,0.3136138916015625,-0.6290740966796875,-0.1110687255859375
2020-12-01 18:41:22.9850,-0.14059039950370789,-1.7158261537551882,-4.100240230560304,0.3136138916015625,-0.6290740966796875,-0.1110687255859375
2020-12-01 18:41:23.0030,-0.21577729284763336,-2.456425905227661,-4.743670463562012,-0.251312255859375,-0.748870849609375,0.0109405517578125
2020-12-01 18:41:23.0350,-0.9979032278060912,-2.1491537094116206,-5.2832350730896,-1.0404510498046875,-1.5649566650390625,0.40625
2020-12-01 18:41:23.0520,-0.9176629781723022,-0.2665169239044189,-5.166710376739502,-1.204315185546875,-1.78997802734375,0.327484130859375
2020-12-01 18:41:23.0690,-0.9176629781723022,-0.2665169239044189,-5.166710376739502,-1.204315185546875,-1.78997802734375,0.327484130859375
2020-12-01 18:41:23.0850,-0.7021852731704712,0.3713506460189819,-4.654821872711182,-0.5058441162109375,-1.8062591552734373,-0.015594482421875
2020-12-01 18:41:23.1040,-0.29195836186409,1.0648417472839355,-3.6439821720123287,0.149200439453125,-1.941619873046875,0.195953369140625
2020-12-01 18:41:23.1350,0.24780580401420596,1.043594241142273,-1.1607893705368042,0.4221649169921875,-1.3123321533203125,0.1867218017578125
2020-12-01 18:41:23.1520,0.2449357211589813,1.3184494972229004,0.5191757678985596,0.5859832763671875,-0.845916748046875,0.2027587890625
2020-12-01 18:41:23.1680,0.2449357211589813,1.3184494972229004,0.5191757678985596,0.5859832763671875,-0.845916748046875,0.2027587890625
2020-12-01 18:41:23.1850,0.26369741559028625,1.4334075450897217,2.358508825302124,0.7569732666015625,-0.554718017578125,0.1500244140625
2020-12-01 18:41:23.2040,0.08025062829256058,1.1857753992080688,4.0944437980651855,0.917236328125,-0.3623199462890625,0.2581329345703125
2020-12-01 18:41:23.2350,0.17929279804229736,-0.7613181471824646,5.754544734954834,0.5656280517578125,-0.3523712158203125,0.01947021484375
2020-12-01 18:41:23.2520,0.17929279804229736,-0.7613181471824646,5.754544734954834,0.1593017578125,-0.399749755859375,0.049041748046875
2020-12-01 18:41:23.2680,0.4985264539718628,-0.21256792545318606,6.335390567779541,0.1593017578125,-0.399749755859375,0.049041748046875
2020-12-01 18:41:23.2850,0.7602158188819885,0.6050142645835876,7.208477020263673,-0.026947021484375,-0.4580230712890625,-0.01519775390625
2020-12-01 18:41:23.3030,0.92605060338974,0.5426198840141296,7.822312355041504,0.1689605712890625,-0.5307159423828125,-0.15771484375
2020-12-01 18:41:23.3350,0.962581217288971,-0.6050414443016052,7.4703917503356925,0.5719451904296875,-1.1978912353515625,-0.321441650390625
2020-12-01 18:41:23.3520,0.962581217288971,-0.6050414443016052,7.4703917503356925,1.001983642578125,-1.505401611328125,0.23028564453125
2020-12-01 18:41:23.3680,0.7486406564712524,3.1819818019866943,6.252642154693604,1.001983642578125,-1.505401611328125,0.23028564453125
2020-12-01 18:41:23.3850,0.0650719404220581,3.608819723129273,3.874037981033325,1.9892578125,-1.6052703857421875,0.179351806640625
2020-12-01 18:41:23.4040,-0.0478263795375824,-0.9930331110954284,2.567333459854126,3.08160400390625,-1.6364593505859375,-0.1981658935546875
2020-12-01 18:41:23.4360,2.194735288619995,-2.426976203918457,-1.1061255931854248,2.381378173828125,0.4691314697265625,0.0095062255859375
2020-12-01 18:41:23.4530,2.194735288619995,-2.426976203918457,-1.1061255931854248,3.3396148681640625,-0.5407257080078125,4.8421630859375
2020-12-01 18:41:23.4690,-0.8523247241973877,14.31272029876709,-5.5705437660217285,3.3396148681640625,-0.5407257080078125,4.8421630859375
2020-12-01 18:41:23.4860,-1.3899340629577637,-14.197582244873047,-4.349413871765137,2.300445556640625,-6.2069244384765625,-6.321563720703125
2020-12-01 18:41:23.5040,0.33992668986320496,-3.5420234203338623,-7.007620334625244,-0.1642608642578125,-0.5671539306640625,0.338775634765625
2020-12-01 18:41:23.5350,0.2696442604064941,-1.2446904182434082,-3.1384477615356445,0.8046417236328125,-0.9132232666015624,0.10577392578125
2020-12-01 18:41:23.5520,0.2696442604064941,-1.2446904182434082,-3.1384477615356445,0.8046417236328125,-0.9132232666015624,0.10577392578125
2020-12-01 18:41:23.5680,-0.051483962684869766,-1.6772273778915403,-1.5612219572067259,1.140594482421875,-1.114898681640625,0.64788818359375
2020-12-01 18:41:23.5850,-0.37377837300300604,-0.19208714365959167,-1.4636011123657229,0.66082763671875,-0.867156982421875,0.4257659912109375
2020-12-01 18:41:23.6040,-0.5313781499862671,-0.08509518951177597,-0.3566089868545532,1.4085235595703125,-1.01263427734375,0.16162109375
2020-12-01 18:41:23.6350,-1.0662045478820799,1.4356142282485962,1.0125056505203247,0.469757080078125,-1.65435791015625,0.378814697265625
2020-12-01 18:41:23.6520,-1.0662045478820799,1.4356142282485962,1.0125056505203247,0.469757080078125,-1.65435791015625,0.378814697265625
2020-12-01 18:41:23.6690,-1.017274260520935,2.76023006439209,0.6829599142074585,0.1696319580078125,-2.0946502685546875,0.159332275390625
2020-12-01 18:41:23.6850,-0.7022042274475098,3.4677734375,-0.9001700282096863,-0.05621337890625,-2.711776733398437,0.439605712890625
2020-12-01 18:41:23.7040,-0.7703403830528259,-5.505002021789551,0.27339425683021545,-0.4342498779296875,-1.81268310546875,-1.347564697265625
2020-12-01 18:41:23.7360,-0.7635034918785095,-1.1815487146377563,-0.4190726280212401,-1.1498565673828125,-0.6301422119140625,-0.1672210693359375
2020-12-01 18:41:23.7520,-0.7635034918785095,-1.1815487146377563,-0.4190726280212401,-1.1498565673828125,-0.6301422119140625,-0.1672210693359375
2020-12-01 18:41:23.7680,-0.450958400964737,1.5643248558044434,-2.136251211166382,-0.6022491455078125,-0.5982513427734375,0.3302001953125
2020-12-01 18:41:23.7850,-0.42480561137199396,0.13413356244564054,-3.362494707107544,-0.0514678955078125,-0.7039642333984375,0.215484619140625
2020-12-01 18:41:23.8040,-0.4997618794441223,-0.7131508588790894,-4.101302623748778,-0.1598052978515625,-0.680999755859375,0.09088134765625
2020-12-01 18:41:23.8350,-0.4475135803222656,-0.3856161236763001,-4.569075584411621,-0.4233551025390625,-1.1880340576171875,0.341949462890625
2020-12-01 18:41:23.8520,-0.3250167071819305,-0.7100799679756165,-5.0459556579589835,-0.4233551025390625,-1.1880340576171875,0.341949462890625
2020-12-01 18:41:23.8680,-0.4052684009075165,-1.4332962036132812,-4.789442539215088,-0.8333892822265625,-1.5337066650390625,0.1635894775390625
2020-12-01 18:41:23.8850,-0.7044566869735718,-0.9340515732765198,-4.462932109832764,-0.951690673828125,-1.489654541015625,0.2354583740234375
2020-12-01 18:41:23.9030,-0.5038490295410156,0.09387749433517456,-3.7628264427185063,-0.43731689453125,-1.755218505859375,0.15338134765625
2020-12-01 18:41:23.9350,-0.06321492046117783,0.9693307280540466,-2.4941766262054443,0.294219970703125,-1.4916229248046875,0.1769256591796875
2020-12-01 18:41:23.9510,0.15061055123806,0.7144597768783569,-1.2079017162322998,0.294219970703125,-1.4916229248046875,0.1769256591796875
2020-12-01 18:41:23.9690,0.03220081329345703,1.152979612350464,0.18763726949691767,0.293609619140625,-0.8886260986328125,0.342376708984375
2020-12-01 18:41:23.9850,-0.0876598134636879,1.8370211124420168,2.10953950881958,0.460174560546875,-0.6808013916015625,0.313140869140625
2020-12-01 18:41:24.0040,-0.32737067341804504,2.0096395015716557,3.9862406253814697,0.6455841064453125,-0.646514892578125,0.33056640625
2020-12-01 18:41:24.0350,-0.4971146881580353,1.1963742971420288,5.487611770629883,0.57257080078125,-0.6412353515625,0.148712158203125
2020-12-01 18:41:24.0520,-0.4914189875125885,-0.026379143819212917,6.347108364105225,0.57257080078125,-0.6412353515625,0.148712158203125
2020-12-01 18:41:24.0680,-0.1842979341745377,0.20839715003967285,6.899467468261719,0.245941162109375,-0.6970672607421875,0.098297119140625
2020-12-01 18:41:24.0850,0.16859833896160126,1.0333083868026731,7.595415115356445,0.20489501953125,-0.751800537109375,0.1270294189453125
2020-12-01 18:41:24.1040,0.4833213984966278,1.0866520404815674,8.077757835388184,0.3938446044921875,-0.7385101318359375,-0.2263641357421875
2020-12-01 18:41:24.1350,0.3907563090324402,1.328617811203003,8.026905059814451,0.654296875,-0.8862152099609375,-0.174224853515625
2020-12-01 18:41:24.1520,0.3908593654632568,1.8726980686187744,7.410358428955077,1.1346588134765625,-1.51617431640625,0.1666717529296875
2020-12-01 18:41:24.1690,0.09126200526952744,3.744184255599976,4.49857234954834,1.9830780029296875,-1.7604827880859375,0.639007568359375
2020-12-01 18:41:24.1860,-0.001514273346401751,-1.1783254146575928,2.17212176322937,3.061309814453125,-1.9400634765625,0.1534423828125
2020-12-01 18:41:24.2040,0.6028832197189331,-1.3199923038482666,-0.2812412679195404,2.652374267578125,-0.527618408203125,0.6066131591796875
2020-12-01 18:41:24.2350,0.4344808757305145,-2.0888588428497314,-0.9668300151824952,2.380111694335937,0.3544921875,-0.11614990234375
2020-12-01 18:41:24.2520,2.2436554431915283,-3.515059232711792,-1.610698938369751,1.6367950439453125,0.3433837890625,-0.330841064453125
2020-12-01 18:41:24.2690,1.142568826675415,15.378256797790527,-5.4322543144226065,3.532699584960937,-0.3524169921875,4.054779052734375
2020-12-01 18:41:24.2860,-0.6184371113777161,-12.20871639251709,-4.374182224273682,2.7575225830078125,-5.6731719970703125,-5.96234130859375
2020-12-01 18:41:24.3040,-0.036253876984119415,-5.588014125823975,-5.56820011138916,-0.2169342041015625,-0.2822723388671875,0.861328125
2020-12-01 18:41:24.3350,0.2870730459690094,0.583990752696991,-3.9444382190704346,-0.8531341552734375,-1.684539794921875,0.573486328125
2020-12-01 18:41:24.3520,0.17475104331970215,-1.2982819080352783,-3.287217140197754,1.0248870849609375,-1.151519775390625,-0.92120361328125
2020-12-01 18:41:24.3680,0.2666322290897369,-1.8989347219467163,-2.0935618877410893,0.9505615234375,-1.287200927734375,0.3661956787109375
2020-12-01 18:41:24.3850,-0.32200947403907776,-0.07219403237104416,-1.2601736783981323,0.7996673583984375,-0.7031707763671875,0.5017547607421875
2020-12-01 18:41:24.4040,-0.7418424487113953,0.0663910061120987,-0.17568421363830564,1.2225799560546875,-1.2754669189453125,0.3964385986328125
2020-12-01 18:41:24.4350,-0.9878588318824768,0.13383422791957855,0.9955958724021912,0.868804931640625,-1.5959930419921875,0.3863067626953125
2020-12-01 18:41:24.4520,-1.2841528654098509,2.1004288196563716,1.2815368175506592,0.2397003173828125,-1.86737060546875,0.2906341552734375
2020-12-01 18:41:24.4690,-0.8149510025978088,5.387304306030273,-0.9859395027160645,-0.3273162841796875,-2.616607666015625,0.61590576171875
2020-12-01 18:41:24.4850,-0.6722327470779419,-5.725472450256348,-0.8460590839385986,-0.2358245849609375,-2.6957244873046875,-1.292266845703125
2020-12-01 18:41:24.5040,-0.4819906055927277,-4.086839675903319,0.3409397304058075,-0.5078887939453125,-1.4747314453125,-0.0458526611328125
2020-12-01 18:41:24.5350,-0.6196483373641968,-1.2845081090927124,-0.7607734799385071,-1.5679931640625,-0.551422119140625,0.329681396484375
2020-12-01 18:41:24.5520,-0.369103729724884,2.478384733200073,-2.379819631576538,-0.8531341552734375,-0.6517181396484375,0.520111083984375
2020-12-01 18:41:24.5690,-0.4149463176727295,1.1896681785583496,-3.6280462741851807,0.0163116455078125,-0.798858642578125,0.2753143310546875
2020-12-01 18:41:24.5850,-0.36457210779190063,-0.5325568318367004,-4.2590603828430185,-0.108642578125,-0.6473236083984375,-0.262939453125
2020-12-01 18:41:24.6040,-0.1667785942554474,1.0774574279785156,-5.232545852661133,-0.386688232421875,-0.83740234375,0.4889068603515625
2020-12-01 18:41:24.6350,-0.3464993536472321,-2.0054459571838383,-5.087186336517334,-0.4382171630859375,-1.44415283203125,-0.015228271484375
2020-12-01 18:41:24.6520,-0.5230440497398376,-3.0807192325592037,-4.741240501403809,-0.8917999267578125,-1.78985595703125,0.1244049072265625
2020-12-01 18:41:24.6690,-0.6548699736595154,-0.8977084755897522,-4.795282363891602,-1.2408447265625,-1.7379608154296875,0.5442047119140625
2020-12-01 18:41:24.6850,-0.1235019639134407,0.3861764669418335,-3.656888484954834,-0.42340087890625,-2.237289428710937,0.1785125732421875
2020-12-01 18:41:24.7040,0.22898311913013455,1.0523760318756104,-2.2662432193756104,0.40802001953125,-2.128402709960937,0.4456787109375
2020-12-01 18:41:24.7350,0.2712964713573456,0.24040062725543976,-1.0518006086349487,0.340484619140625,-1.52484130859375,0.021697998046875
2020-12-01 18:41:24.7520,0.23852787911891934,1.766457438468933,0.6716499924659729,0.4129791259765625,-1.0974578857421875,0.2692718505859375
2020-12-01 18:41:24.7680,0.120163694024086,2.6437768936157227,2.7952826023101807,0.527587890625,-0.7796478271484375,0.2348480224609375
2020-12-01 18:41:24.7850,-0.139458566904068,2.7478795051574707,4.7566494941711435,0.7033233642578125,-0.5673065185546875,0.25335693359375
2020-12-01 18:41:24.8040,-0.42741790413856506,1.3438928127288818,6.172467231750487,0.785797119140625,-0.5561676025390625,0.1093902587890625
2020-12-01 18:41:24.8360,-0.439639151096344,-0.1445654332637787,6.96914529800415,0.6683502197265625,-0.61279296875,0.0190582275390625
2020-12-01 18:41:24.8520,-0.139814093708992,-0.7958630323410034,7.539632797241211,0.3745880126953125,-0.4460296630859375,0.006072998046875
2020-12-01 18:41:24.8690,0.6387759447097778,-0.9981666207313538,8.163858413696289,0.175262451171875,-0.36883544921875,-0.20550537109375
2020-12-01 18:41:24.8850,1.1202105283737185,0.5317653417587279,8.257745742797853,0.3109588623046875,-0.4530792236328125,-0.08038330078125
2020-12-01 18:41:24.9040,1.1082180738449097,3.5296826362609863,7.761570930480957,0.664215087890625,-0.7145843505859375,-0.0561676025390625
2020-12-01 18:41:24.9350,0.2520895004272461,6.6234703063964835,5.62556266784668,1.7152252197265625,-0.68890380859375,-0.0604705810546875
2020-12-01 18:41:24.9520,-1.7725965976715088,-3.1811115741729736,3.9952526092529297,3.067535400390625,-2.198593139648437,-0.0322265625
2020-12-01 18:41:24.9690,-0.4531382024288178,-1.454836130142212,2.3624460697174072,3.1184539794921875,-2.1559295654296875,0.7149658203125
2020-12-01 18:41:24.9860,0.7291833758354187,2.0588216781616206,-0.3412534594535828,1.901092529296875,-0.3122711181640625,0.6663665771484375
2020-12-01 18:41:25.0040,0.6899387240409851,0.6161673069000244,-1.1864728927612305,2.1136016845703125,0.5629730224609375,-0.3389739990234375
2020-12-01 18:41:25.0360,1.9437984228134155,-2.1394059658050537,-1.018164038658142,2.177215576171875,0.356048583984375,0.462249755859375
2020-12-01 18:41:25.0530,3.853363752365112,16.552051544189453,-4.0631303787231445,4.815963745117188,-1.447662353515625,4.596221923828125
2020-12-01 18:41:25.0690,-1.688349366188049,-14.157745361328125,-5.0280799865722665,1.07830810546875,-4.4896240234375,-4.963104248046875
2020-12-01 18:41:25.0850,0.3193364441394806,-2.1536097526550293,-4.0588059425353995,0.0646209716796875,-1.1766204833984375,0.963134765625
2020-12-01 18:41:25.1040,0.7164568901062012,-0.713334858417511,-4.399534225463867,-0.96484375,-2.0412139892578125,0.228485107421875
2020-12-01 18:41:25.1350,0.3456612527370453,0.16313326358795166,-3.5331804752349854,1.005035400390625,-0.994110107421875,-0.4515380859375
2020-12-01 18:41:25.1520,0.4160579442977905,-1.8099594116210935,-1.9604655504226685,1.0773468017578125,-1.006622314453125,0.210845947265625
2020-12-01 18:41:25.1690,-0.2545356154441833,0.16994695365428925,-1.3353976011276243,0.7122650146484375,-1.2681732177734375,0.8774261474609375
2020-12-01 18:41:25.1860,-0.6062095165252686,0.6253754496574402,-0.1551283299922943,0.8231964111328125,-1.503021240234375,0.619049072265625
2020-12-01 18:41:25.2040,-0.6062095165252686,0.6253754496574402,-0.1551283299922943,0.6237030029296875,-1.6375274658203125,0.2722015380859375
2020-12-01 18:41:25.2350,-0.688229501247406,3.1380414962768555,0.22473964095115664,0.0605316162109375,-1.9710693359375,0.25054931640625
2020-12-01 18:41:25.2530,-0.08396946638822557,1.6989034414291382,-2.1126358509063716,-0.1891021728515625,-2.983489990234375,0.2281951904296875
2020-12-01 18:41:25.2690,-0.7128451466560364,-7.661853790283202,0.9939071536064148,-0.4649810791015625,-2.482940673828125,-1.769500732421875
2020-12-01 18:41:25.2850,-0.4842976927757263,-2.668607234954834,-0.6689338684082031,-1.259063720703125,-0.82354736328125,0.565032958984375
2020-12-01 18:41:25.3040,-0.4842976927757263,-2.668607234954834,-0.6689338684082031,-1.4715118408203125,-0.3628997802734375,0.1489105224609375
2020-12-01 18:41:25.3350,0.0209103412926197,2.6283695697784424,-3.6653563976287837,-0.4473114013671875,-0.780975341796875,0.5825042724609375
2020-12-01 18:41:25.3510,-0.13890062272548676,-1.095842361450195,-3.9490039348602295,-0.0005645751953125,-0.8099822998046875,-0.34442138671875
2020-12-01 18:41:25.3690,-0.10939200222492218,-2.05759072303772,-4.086945533752441,-0.2137298583984375,-1.0278778076171875,-0.1774749755859375
2020-12-01 18:41:25.3850,-0.10939200222492218,-2.05759072303772,-4.086945533752441,-0.3592529296875,-1.3829345703125,0.522979736328125
2020-12-01 18:41:25.4040,0.10505478084087372,-2.2438220977783203,-5.1983723640441895,-0.96697998046875,-1.573974609375,0.2665863037109375
2020-12-01 18:41:25.4350,-0.530494749546051,-1.953918695449829,-5.106842517852783,-1.36187744140625,-1.5948638916015625,0.4786376953125
2020-12-01 18:41:25.4530,-0.25565335154533386,-0.13964338600635529,-4.667608261108398,-1.0175933837890625,-2.317535400390625,0.282135009765625
2020-12-01 18:41:25.4690,0.2618161737918854,2.243889808654785,-3.0992002487182617,-0.093292236328125,-2.553085327148437,0.5146636962890625
2020-12-01 18:41:25.4860,0.4857746958732605,2.3928468227386475,-1.7391834259033203,0.3049468994140625,-1.7925567626953125,0.277069091796875
2020-12-01 18:41:25.5040,0.4857746958732605,2.3928468227386475,-1.7391834259033203,0.513092041015625,-1.16632080078125,0.26556396484375
2020-12-01 18:41:25.5350,-0.2327419072389603,2.1365888118743896,1.842902421951294,0.7691497802734375,-0.842010498046875,0.15875244140625
2020-12-01 18:41:25.5520,-0.6383570432662964,1.7953414916992188,4.0708537101745605,0.897430419921875,-0.660308837890625,0.2100372314453125
2020-12-01 18:41:25.5690,-0.8333219885826111,0.5834365487098694,5.590147495269775,0.8383331298828125,-0.487152099609375,0.17120361328125
2020-12-01 18:41:25.5850,-0.8333219885826111,0.5834365487098694,5.590147495269775,0.66998291015625,-0.2857513427734375,0.235382080078125
2020-12-01 18:41:25.6040,-0.8283823728561401,-0.3858760595321655,6.491368770599365,0.66998291015625,-0.2857513427734375,0.235382080078125
2020-12-01 18:41:25.6350,-0.2569044828414917,-0.2898257076740265,7.606613636016847,-0.0764007568359375,-0.5050811767578125,0.0777435302734375
2020-12-01 18:41:25.6520,0.33483123779296875,0.7160787582397461,8.417476654052733,0.072784423828125,-0.5420074462890625,-0.0674591064453125
2020-12-01 18:41:25.6690,0.6660611033439636,1.7541104555130005,8.450289726257324,0.3271484375,-0.5362701416015625,-0.0426483154296875
2020-12-01 18:41:25.6850,0.6660611033439636,1.7541104555130005,8.450289726257324,0.7787322998046875,-0.93670654296875,0.234619140625
2020-12-01 18:41:25.7040,0.6428761482238771,2.8942584991455083,7.722567558288574,0.7787322998046875,-0.93670654296875,0.234619140625
2020-12-01 18:41:25.7350,-1.0639551877975464,-1.6740713119506836,4.69734525680542,3.0409088134765625,-2.32244873046875,0.4011383056640625
2020-12-01 18:41:25.7530,0.188569650053978,1.019135594367981,3.105330228805542,3.999588012695313,-1.9138946533203125,0.8217315673828125
2020-12-01 18:41:25.7690,0.6330925226211548,-0.037383858114480965,-1.2371842861175537,2.9467315673828125,0.328216552734375,-0.319549560546875
2020-12-01 18:41:25.7860,0.6330925226211548,-0.037383858114480965,-1.2371842861175537,2.775619506835937,0.692596435546875,0.035614013671875
2020-12-01 18:41:25.8050,1.1652504205703735,-6.4117679595947275,-1.008020281791687,2.775619506835937,0.692596435546875,0.035614013671875
2020-12-01 18:41:25.8360,0.17200052738189694,-17.784061431884766,-2.5932142734527592,-0.2475738525390625,-7.108169555664063,-6.8654327392578125
2020-12-01 18:41:25.8520,0.7641570568084717,2.202334403991699,-5.107078552246094,0.8974151611328125,-0.123504638671875,2.344711303710937
2020-12-01 18:41:25.8690,0.4213448464870453,-3.610516786575317,-2.062950611114502,-1.3323211669921875,-1.13775634765625,-1.4266815185546875
2020-12-01 18:41:25.8850,0.4213448464870453,-3.610516786575317,-2.062950611114502,-1.3323211669921875,-1.13775634765625,-1.4266815185546875
2020-12-01 18:41:25.9040,0.573157012462616,0.2194708436727524,-2.3183014392852783,0.299224853515625,-1.27001953125,1.4510040283203125
2020-12-01 18:41:25.9350,-0.3253836929798126,-0.6500768065452576,-1.3307565450668335,1.21905517578125,-1.1871337890625,0.7358245849609375
2020-12-01 18:41:25.9520,-0.9128519892692566,-0.2536093592643738,-0.04493791237473488,0.720458984375,-1.564361572265625,0.5346527099609375
2020-12-01 18:41:25.9690,-0.9128519892692566,-0.2536093592643738,-0.04493791237473488,-0.4633636474609375,-1.79248046875,0.533050537109375
2020-12-01 18:41:25.9850,-0.7528066635131836,2.182944774627685,-1.2280919551849363,-0.4633636474609375,-1.79248046875,0.533050537109375
2020-12-01 18:41:26.0040,-0.7072567343711853,0.7105476260185242,-0.4613207578659058,-0.04949951171875,-2.318145751953125,-0.1184539794921875
2020-12-01 18:41:26.0350,-1.043651819229126,-3.6901128292083736,-0.7358050346374512,-0.66070556640625,-1.3569793701171875,-0.2848968505859375
2020-12-01 18:41:26.0520,-0.6725552082061768,-2.4664227962493896,-2.5285983085632324,-0.9152984619140624,-1.0095672607421875,0.2371673583984375
2020-12-01 18:41:26.0690,-0.6725552082061768,-2.4664227962493896,-2.5285983085632324,-0.996917724609375,-1.06842041015625,0.52996826171875
2020-12-01 18:41:26.0850,-0.3772016167640686,-0.7980596423149109,-3.3817517757415767,-0.996917724609375,-1.06842041015625,0.52996826171875
2020-12-01 18:41:26.1040,-0.06857293844223022,1.2577787637710571,-3.538083553314209,-0.9410858154296876,-0.938629150390625,0.8052978515625
2020-12-01 18:41:26.1350,-0.0548267625272274,0.5430025458335876,-5.415613651275635,-0.1649169921875,-0.64715576171875,0.281768798828125
2020-12-01 18:41:26.1520,-0.04442206025123596,-1.6084177494049072,-6.086902618408202,-0.50189208984375,-1.395294189453125,-0.1012420654296875
2020-12-01 18:41:26.1690,-0.04442206025123596,-1.6084177494049072,-6.086902618408202,-1.0977630615234375,-1.73040771484375,0.01715087890625
2020-12-01 18:41:26.1850,-0.6227525472640991,-3.616389989852905,-5.133011817932129,-1.0977630615234375,-1.73040771484375,0.01715087890625
2020-12-01 18:41:26.2040,-0.4899513423442841,-1.9445624351501465,-5.381164073944092,-1.4875640869140625,-1.7650299072265625,0.2900390625
2020-12-01 18:41:26.2360,0.4940808415412903,1.290373921394348,-3.328050136566162,-0.062347412109375,-2.6732635498046875,0.5148773193359375
2020-12-01 18:41:26.2520,0.7366572618484497,1.3439693450927734,-2.096608638763428,0.287353515625,-1.9780731201171875,0.34613037109375
2020-12-01 18:41:26.2690,0.7366572618484497,1.3439693450927734,-2.096608638763428,0.252410888671875,-1.1021728515625,0.20330810546875
2020-12-01 18:41:26.2850,0.5345475673675537,1.8907437324523928,-0.8380839824676514,0.252410888671875,-1.1021728515625,0.20330810546875
2020-12-01 18:41:26.3040,0.27724626660346985,3.222632646560669,1.1952322721481323,0.490203857421875,-1.09490966796875,0.314697265625
2020-12-01 18:41:26.3350,-0.7225502133369446,1.3941727876663208,4.890852928161621,0.9842376708984376,-0.5650177001953125,0.2487640380859375
2020-12-01 18:41:26.3520,-0.9945023655891418,-0.043609794229269035,5.909972190856934,0.6456756591796875,-0.30059814453125,0.0858917236328125
2020-12-01 18:41:26.3690,-0.9945023655891418,-0.043609794229269035,5.909972190856934,0.6456756591796875,-0.30059814453125,0.0858917236328125
2020-12-01 18:41:26.3850,-0.8752598762512207,-0.2744360864162445,6.215686321258545,0.1386260986328125,-0.36505126953125,0.0926513671875
2020-12-01 18:41:26.4030,-0.4581334888935089,0.5453339219093323,7.082791805267334,-0.0594329833984375,-0.6156158447265625,0.074920654296875
2020-12-01 18:41:26.4350,0.031745679676532745,1.0089191198349001,8.202001571655272,0.2880401611328125,-0.4955902099609375,-0.2154083251953125
2020-12-01 18:41:26.4520,0.09983471781015396,1.0186036825180054,7.897902488708496,0.4387969970703125,-0.745391845703125,-0.042266845703125
2020-12-01 18:41:26.4690,0.09983471781015396,1.0186036825180054,7.897902488708496,0.4387969970703125,-0.745391845703125,-0.042266845703125
2020-12-01 18:41:26.4850,0.3333337604999542,3.038469791412353,7.101226329803468,0.9080352783203124,-1.21368408203125,0.2159576416015625
2020-12-01 18:41:26.5040,-0.09022416919469832,4.700402736663818,6.212010383605957,2.6522216796875,-1.5895843505859375,0.7044677734375
2020-12-01 18:41:26.5360,0.7882006168365479,-0.16531652212142944,2.8236958980560303,3.721923828125,-0.8993988037109375,0.8709716796875
2020-12-01 18:41:26.5530,2.2011499404907227,-10.779773712158203,1.7532881498336792,3.36993408203125,0.198577880859375,0.8433380126953125
2020-12-01 18:41:26.5690,2.2011499404907227,-10.779773712158203,1.7532881498336792,3.36993408203125,0.198577880859375,0.8433380126953125
2020-12-01 18:41:26.5860,0.792526125907898,26.08995056152344,-10.967689514160156,6.2620849609375,-5.208343505859375,5.334884643554688
2020-12-01 18:41:26.6040,-2.052561044692993,-19.716550827026367,-4.205705165863037,-0.034942626953125,-3.46478271484375,-7.911285400390625
2020-12-01 18:41:26.6350,0.4491074979305267,1.0163493156433103,-2.9739758968353267,-0.7153472900390625,-0.5671539306640625,1.1960906982421875
2020-12-01 18:41:26.6520,0.4491074979305267,1.0163493156433103,-2.9739758968353267,0.254058837890625,-2.054840087890625,0.08740234375
2020-12-01 18:41:26.6690,-0.01956198364496231,-0.3251996636390686,-3.46636700630188,0.254058837890625,-2.054840087890625,0.08740234375
2020-12-01 18:41:26.6850,0.24065788090229034,0.35023072361946106,-2.0661683082580566,1.4273529052734375,-1.0554351806640625,1.0019989013671875
2020-12-01 18:41:26.7040,-0.5749000310897827,-0.3927677869796753,-0.8715676665306091,1.5297698974609375,-1.1597747802734375,0.1799163818359375
2020-12-01 18:41:26.7360,-0.9988872408866882,0.5294923186302185,0.4956981539726257,-0.4267730712890625,-1.9770050048828125,0.45770263671875
2020-12-01 18:41:26.7510,-0.9988872408866882,0.5294923186302185,0.4956981539726257,-0.5222015380859375,-2.1411895751953125,0.760955810546875
2020-12-01 18:41:26.7690,-0.034161698073148734,4.604360580444336,-2.3432536125183105,-0.5222015380859375,-2.1411895751953125,0.760955810546875
2020-12-01 18:41:26.7860,-1.756519794464111,-4.506365776062012,-0.920523762702942,-0.4504547119140625,-2.794342041015625,-0.978790283203125
2020-12-01 18:41:26.8040,-1.1852000951766968,-2.96086859703064,-0.4144073128700256,-0.586090087890625,-1.3408966064453125,-0.15863037109375
2020-12-01 18:41:26.8350,-0.3569008708000183,2.679096937179565,-3.422451496124268,-1.2869110107421875,-1.1678466796875,0.8703155517578125
2020-12-01 18:41:26.8520,-0.3569008708000183,2.679096937179565,-3.422451496124268,-0.9400177001953124,-1.1848297119140625,0.5027923583984375
2020-12-01 18:41:26.8690,0.5777464509010315,4.309811592102052,-4.3977155685424805,-0.9400177001953124,-1.1848297119140625,0.5027923583984375
2020-12-01 18:41:26.8850,1.3360413312911987,4.220334053039552,-5.275993347167969,-0.3148193359375,-0.578033447265625,0.316741943359375
2020-12-01 18:41:26.9040,0.6890497803688049,-0.409080982208252,-4.919071674346924,-0.28759765625,-0.982208251953125,-0.32598876953125
2020-12-01 18:41:26.9360,-0.2666114568710327,-5.157865524291992,-5.381612777709961,-1.347076416015625,-1.8434295654296875,0.2963104248046875
2020-12-01 18:41:26.9520,-0.2666114568710327,-5.157865524291992,-5.381612777709961,-1.347076416015625,-1.8434295654296875,0.2963104248046875
2020-12-01 18:41:26.9690,-0.14965073764324188,-4.700886249542236,-5.239616870880127,-1.5984344482421875,-1.6873321533203125,0.0640106201171875
2020-12-01 18:41:26.9860,0.24898505210876465,-1.796434760093689,-4.055876731872559,-0.7962493896484375,-2.2245330810546875,0.00604248046875
2020-12-01 18:41:27.0050,0.6617308259010315,0.11704539507627487,-2.505702018737793,-0.087493896484375,-2.6242828369140625,0.443878173828125
2020-12-01 18:41:27.0360,0.7889825105667114,1.7712353467941284,-0.8590108752250671,0.2528533935546875,-0.9930267333984376,0.213165283203125
2020-12-01 18:41:27.0520,0.8814740777015686,4.713956832885742,1.0874872207641602,0.2528533935546875,-0.9930267333984376,0.213165283203125
2020-12-01 18:41:27.0680,0.2794569432735443,4.6530632972717285,3.425337553024292,0.691192626953125,-0.81610107421875,0.193817138671875
2020-12-01 18:41:27.0850,-0.7548857927322388,2.6627087593078613,5.513284206390381,1.0025482177734375,-0.579376220703125,0.3097991943359375
2020-12-01 18:41:27.1040,-1.5130072832107544,0.1236841231584549,6.774502277374268,0.97308349609375,-0.3966064453125,0.2804107666015625
2020-12-01 18:41:27.1350,-1.6285245418548584,-1.7179447412490845,7.443528652191162,0.086700439453125,-0.5672607421875,0.046875
2020-12-01 18:41:27.1520,-1.079928636550903,-1.812068581581116,8.051003456115723,0.086700439453125,-0.5672607421875,0.046875
2020-12-01 18:41:27.1690,-0.26822638511657715,-0.02187094464898109,8.78685474395752,-0.0640716552734375,-0.486328125,-0.08447265625
2020-12-01 18:41:27.1850,0.2181259393692017,2.283789157867432,8.903884887695312,0.091278076171875,-0.6680755615234375,-0.0481109619140625
2020-12-01 18:41:27.2040,0.2928182780742645,3.818025350570679,8.567068099975586,0.4052886962890625,-1.1861419677734375,0.1750640869140625
2020-12-01 18:41:27.2350,0.3302479386329651,6.112154006958008,7.492631435394287,2.70001220703125,-2.069000244140625,0.96612548828125
2020-12-01 18:41:27.2520,-0.9888255596160888,2.3307220935821533,4.572793006896973,2.70001220703125,-2.069000244140625,0.96612548828125
2020-12-01 18:41:27.2690,-0.5601003170013428,-3.255989551544189,3.4620673656463623,3.5641632080078125,-2.3363189697265625,0.59991455078125
2020-12-01 18:41:27.2860,0.6573104858398438,-1.5187565088272097,1.5199179649353027,4.23687744140625,-1.26385498046875,1.03533935546875
2020-12-01 18:41:27.3050,0.4047035574913025,-1.3669792413711548,-2.1493973731994633,2.9213104248046875,0.4512176513671875,-0.1165771484375
2020-12-01 18:41:27.3350,0.3990001082420349,-8.975600242614746,-2.3108839988708496,2.2169189453125,0.1691741943359375,0.7982330322265625
2020-12-01 18:41:27.3530,1.911776781082153,22.08968734741211,-8.16422176361084,5.150314331054688,-3.778152465820313,5.0844573974609375
2020-12-01 18:41:27.3690,-2.71628737449646,-20.539535522460934,-3.7566347122192383,-1.9903564453125,-4.4464111328125,-7.37841796875
2020-12-01 18:41:27.3850,-0.048642370849847794,1.1980198621749878,-4.129659175872804,0.7339019775390625,-0.0087432861328125,0.6229095458984375
2020-12-01 18:41:27.4040,0.8813697099685669,1.1182533502578735,-4.534510612487793,-0.9921417236328124,-0.7509002685546875,-0.4532623291015625
2020-12-01 18:41:27.4360,0.5115873813629149,0.13384941220283508,-3.529923677444458,0.9260406494140624,-1.3272247314453125,0.1192474365234375
2020-12-01 18:41:27.4520,0.121378093957901,-1.181966781616211,-1.3313195705413818,1.6396026611328125,-1.3977508544921875,0.9319610595703124
2020-12-01 18:41:27.4690,-0.6742801666259766,-1.2346047163009644,-0.13102006912231445,0.6313629150390625,-1.3337554931640625,0.5762786865234375
2020-12-01 18:41:27.4860,-0.8201590776443481,0.32335302233695984,0.22654259204864505,0.00982666015625,-2.1262664794921875,0.496978759765625
2020-12-01 18:41:27.5050,-0.5574395656585693,1.4690915346145632,0.3807905018329621,-0.5506439208984375,-1.9696044921875,0.1207275390625
2020-12-01 18:41:27.5360,-0.07181453704833984,3.4324498176574707,-1.63518488407135,-0.6887054443359375,-2.2752685546875,0.0762786865234375
2020-12-01 18:41:27.5520,-1.714630961418152,-5.213202476501465,-0.5973116159439087,-0.696075439453125,-2.9890594482421875,-1.1436614990234375
2020-12-01 18:41:27.5690,-1.567413568496704,-4.636590003967285,-0.8076786994934082,-0.75079345703125,-1.032623291015625,-0.3043365478515625
2020-12-01 18:41:27.5850,-0.6068494319915771,-1.2934629917144775,-3.3593256473541264,-1.0836181640625,-0.4035797119140625,0.584228515625
2020-12-01 18:41:27.6040,-0.3205244839191437,1.368322253227234,-3.447169542312622,-1.0436248779296875,-0.873321533203125,0.888519287109375
2020-12-01 18:41:27.6350,0.061934474855661385,2.236276865005493,-3.3995332717895512,-0.7758331298828125,-1.0716400146484375,0.4603271484375
2020-12-01 18:41:27.6530,0.8403468728065491,2.6850910186767583,-4.603723526000977,-0.386688232421875,-0.518218994140625,0.2989959716796875
2020-12-01 18:41:27.6690,0.8085224032402039,0.5849846601486206,-5.494591236114502,0.0920867919921875,-0.7149505615234375,0.2066802978515625
2020-12-01 18:41:27.6850,-0.2674484848976135,-4.16127872467041,-4.8563008308410645,-0.42474365234375,-1.5898590087890625,-0.392547607421875
2020-12-01 18:41:27.7040,-0.6571571230888367,-4.53479528427124,-4.869426727294922,-1.35028076171875,-1.6743011474609375,0.0930328369140625
2020-12-01 18:41:27.7350,-0.10620713233947754,-2.275111436843872,-5.0962324142456055,-1.8021087646484373,-1.3944549560546875,0.3217315673828125
2020-12-01 18:41:27.7520,0.2505962550640106,0.2568919658660889,-3.897018671035767,-1.169891357421875,-1.275848388671875,0.3324432373046875
2020-12-01 18:41:27.7690,0.40912091732025146,1.996579885482788,-3.008920907974243,-0.3212738037109375,-1.7615814208984375,0.1379241943359375
2020-12-01 18:41:27.7850,0.6650651097297668,1.83567214012146,-1.574107646942139,0.1904449462890625,-2.5389862060546875,0.54083251953125
2020-12-01 18:41:27.8040,0.5863590836524963,1.9603230953216555,0.17878146469593048,0.2114410400390625,-1.7158966064453125,0.142791748046875
2020-12-01 18:41:27.8350,0.3529892265796661,2.83196759223938,1.8804543018341064,0.35302734375,-1.0150604248046875,0.2520751953125
2020-12-01 18:41:27.8520,-0.19646485149860385,2.234881639480591,4.067959785461427,0.78509521484375,-0.854644775390625,0.180633544921875
2020-12-01 18:41:27.8690,-0.7188127636909485,0.8456652164459229,5.8617987632751465,1.05126953125,-0.7658538818359375,0.2818756103515625
2020-12-01 18:41:27.8850,-0.954897165298462,-0.610215425491333,6.8565711975097665,1.0360107421875,-0.731048583984375,0.3132781982421875
2020-12-01 18:41:27.9040,-0.694129228591919,-0.5296534895896912,7.535207271575928,0.567901611328125,-0.6711578369140625,0.2633514404296875
2020-12-01 18:41:27.9350,-0.4053256511688232,-0.3980877101421356,7.607493877410889,0.02972412109375,-0.6413726806640625,0.112548828125
2020-12-01 18:41:27.9520,0.21730515360832212,1.9847726821899412,8.382779121398926,0.1803741455078125,-0.6609954833984375,0.221099853515625
2020-12-01 18:41:27.9690,0.2449889779090881,3.509089708328247,8.792778968811035,0.4016265869140625,-0.85150146484375,0.182403564453125
2020-12-01 18:41:27.9850,-0.05289170891046524,4.497594356536865,7.592116355895996,1.0181884765625,-1.572967529296875,0.5125274658203125
2020-12-01 18:41:28.0040,-0.7348753213882446,2.06235933303833,6.269343376159668,2.312484741210937,-2.075225830078125,0.4689788818359375
2020-12-01 18:41:28.0360,-0.6702518463134766,-0.6123976111412048,5.632411479949951,2.7879180908203125,-2.023651123046875,0.9195709228515624
2020-12-01 18:41:28.0520,0.8220581412315369,1.9208850860595703,3.1336445808410645,3.0935821533203125,-1.594879150390625,1.3503875732421875
2020-12-01 18:41:28.0700,1.108588695526123,0.5227412581443787,-0.15303455293178558,2.9016265869140625,-0.468017578125,0.3654022216796875
2020-12-01 18:41:28.0860,0.4830121994018554,-2.441385507583618,-1.6384382247924805,3.354949951171875,0.1797027587890625,-0.349884033203125
2020-12-01 18:41:28.1050,-0.18867243826389316,-6.677889347076416,-1.8157716989517207,2.255950927734375,0.21356201171875,1.38812255859375
2020-12-01 18:41:28.1350,1.5166031122207642,16.41800308227539,-6.667048931121826,4.4285888671875,-3.8802642822265625,3.6617279052734375
2020-12-01 18:41:28.1520,-3.3524303436279297,-19.003995895385746,-3.1778664588928223,-1.7978515625,-4.171356201171875,-5.2342681884765625
2020-12-01 18:41:28.1690,0.5293541550636292,4.085053443908691,-5.798208713531494,-0.214447021484375,0.573028564453125,0.8946380615234375
2020-12-01 18:41:28.1850,0.4983328282833099,-0.5860456228256226,-5.2664756774902335,-1.3007354736328125,-1.4018096923828125,-1.62158203125
2020-12-01 18:41:28.2040,0.8990115523338318,1.5342886447906494,-3.0952157974243164,1.66864013671875,-0.997955322265625,0.49407958984375
2020-12-01 18:41:28.2350,0.13648061454296112,-2.9739224910736084,-0.9511639475822448,1.4033203125,-1.60504150390625,0.17010498046875
2020-12-01 18:41:28.2520,-0.3488871455192566,-0.2214530259370804,-0.019518308341503143,0.4969482421875,-1.6498870849609375,0.69097900390625
2020-12-01 18:41:28.2690,-0.5155943632125854,0.3775939047336577,0.11581208556890488,-0.1208648681640625,-1.8398895263671875,0.619232177734375
2020-12-01 18:41:28.2850,-0.493177205324173,0.589523434638977,0.6845144033432007,-0.304840087890625,-1.87872314453125,0.441009521484375
2020-12-01 18:41:28.3040,-0.1710606962442398,2.5357956886291504,-1.9871128797531128,-0.8566741943359375,-2.1344757080078125,0.200592041015625
2020-12-01 18:41:28.3360,-2.0631394386291504,-5.818042278289795,-0.4342640936374664,-0.7514801025390625,-2.7738800048828125,-0.91705322265625
2020-12-01 18:41:28.3520,-1.3475565910339355,-2.9693834781646733,-0.9900977611541748,-0.836029052734375,-0.9944305419921876,0.2031707763671875
2020-12-01 18:41:28.3690,-0.607377290725708,-0.7711949944496155,-3.13962197303772,-1.151275634765625,-0.521148681640625,0.3338775634765625
2020-12-01 18:41:28.3850,-0.36205726861953735,1.2813130617141724,-3.0812907218933105,-0.6660614013671875,-0.8987579345703125,0.7873992919921875
2020-12-01 18:41:28.4040,-0.36205726861953735,1.2813130617141724,-3.0812907218933105,-0.57720947265625,-1.139068603515625,0.5189666748046875
2020-12-01 18:41:28.4350,0.5406696200370789,2.325242042541504,-4.865794658660889,-0.592071533203125,-0.646453857421875,0.412506103515625
2020-12-01 18:41:28.4520,0.6626285910606384,1.0519390106201172,-5.632140159606934,-0.256103515625,-0.821136474609375,0.18408203125
2020-12-01 18:41:28.4690,-0.403251051902771,-2.562195062637329,-5.728126525878906,-0.9008941650390624,-1.447906494140625,-0.159332275390625
2020-12-01 18:41:28.4850,-0.2475591897964477,-2.0520622730255127,-5.732100486755371,-1.3971405029296875,-1.7443084716796875,0.1125030517578125
2020-12-01 18:41:28.5040,-0.2475591897964477,-2.0520622730255127,-5.732100486755371,-1.54248046875,-1.6728057861328125,0.099517822265625
2020-12-01 18:41:28.5350,-0.04104224219918251,-0.5586680769920349,-4.132310867309569,-0.736419677734375,-1.783538818359375,-0.0193939208984375
2020-12-01 18:41:28.5530,0.3073000311851501,0.23473767936229706,-2.9323718547821045,-0.14019775390625,-2.3349151611328125,0.4166107177734375
2020-12-01 18:41:28.5690,0.2615996599197388,0.7704882025718689,-1.5028218030929563,0.01837158203125,-2.0697479248046875,0.2536163330078125
2020-12-01 18:41:28.5860,0.3036429584026337,2.306593894958496,0.012798086740076542,0.2279205322265625,-1.5285491943359375,0.44384765625
2020-12-01 18:41:28.6040,0.3036429584026337,2.306593894958496,0.012798086740076542,0.5116424560546875,-0.96624755859375,0.3027496337890625
2020-12-01 18:41:28.6350,-0.6155484318733215,2.4495091438293457,4.166813373565674,0.8160400390625,-0.7651214599609375,0.4405364990234375
2020-12-01 18:41:28.6520,-1.3304539918899536,0.4487785995006561,5.783986568450928,1.027618408203125,-0.668304443359375,0.354827880859375
2020-12-01 18:41:28.6690,-1.5973104238510132,-1.104076862335205,6.576591968536378,0.92242431640625,-0.478057861328125,0.3155975341796875
2020-12-01 18:41:28.6860,-1.5973104238510132,-1.104076862335205,6.576591968536378,0.487762451171875,-0.4845428466796875,0.254058837890625
2020-12-01 18:41:28.7040,-1.3169310092926023,-1.5290850400924685,7.317631721496582,0.069732666015625,-0.39630126953125,0.079437255859375
2020-12-01 18:41:28.7350,-0.07054340839385986,0.5971941351890564,8.487985610961914,-0.0187530517578125,-0.541290283203125,0.075958251953125
2020-12-01 18:41:28.7520,0.4638169407844544,2.501901626586914,8.601415634155272,0.1145782470703125,-0.710845947265625,0.1295623779296875
2020-12-01 18:41:28.7690,0.4693102240562439,3.1453452110290527,8.009250640869139,0.5266265869140625,-1.1004638671875,0.2759857177734375
2020-12-01 18:41:28.7850,0.4693102240562439,3.1453452110290527,8.009250640869139,1.4254608154296875,-1.36505126953125,0.2593536376953125
2020-12-01 18:41:28.8040,0.2459716796875,3.7650132179260254,6.446681499481201,2.7977447509765625,-2.24822998046875,0.61260986328125
2020-12-01 18:41:28.8360,-0.8020572662353516,-1.9614415168762207,4.222700119018556,3.1656036376953125,-2.3899383544921875,0.6702880859375
2020-12-01 18:41:28.8530,0.7987546920776367,1.9599771499633791,0.575543224811554,2.857147216796875,-1.06024169921875,0.9427032470703124
2020-12-01 18:41:28.8690,1.0745623111724854,1.0983872413635254,-1.8128079175949097,2.923248291015625,0.140350341796875,-0.140960693359375
2020-12-01 18:41:28.8860,1.0745623111724854,1.0983872413635254,-1.8128079175949097,2.3942413330078125,0.1353912353515625,1.2837371826171875
2020-12-01 18:41:28.9050,0.9727126359939576,-8.931224822998047,-0.5876352787017822,5.17724609375,-5.769058227539063,5.487106323242188
2020-12-01 18:41:28.9340,-3.2514004707336426,-21.05647087097168,-3.3773930072784424,-1.265289306640625,-2.904998779296875,-6.508590698242188
2020-12-01 18:41:28.9520,-0.1315188705921173,1.5719316005706787,-4.8668861389160165,0.438262939453125,0.3779754638671875,0.5921630859375
2020-12-01 18:41:28.9690,0.2720898389816284,-0.8219804167747498,-4.457030296325684,-1.473663330078125,-1.136932373046875,-0.8375396728515625
2020-12-01 18:41:28.9850,0.2720898389816284,-0.8219804167747498,-4.457030296325684,1.2639007568359375,-1.2427215576171875,0.803070068359375
2020-12-01 18:41:29.0040,0.3146559298038483,1.7999067306518557,-2.9355745315551762,1.2639007568359375,-1.2427215576171875,0.803070068359375
2020-12-01 18:41:29.0350,-0.7990191578865051,-1.2760690450668335,0.3885679841041565,0.9155731201171876,-1.5165863037109375,0.31817626953125
2020-12-01 18:41:29.0520,-0.9266793727874756,-0.3512387275695801,0.5707404613494873,-0.1562042236328125,-2.091781616210937,0.256378173828125
2020-12-01 18:41:29.0690,-0.2770281434059143,2.9683585166931152,-0.32542335987091064,-1.1733551025390625,-2.2817535400390625,0.5341644287109375
2020-12-01 18:41:29.0860,-0.2770281434059143,2.9683585166931152,-0.32542335987091064,-0.7336578369140625,-2.3507843017578125,-0.183013916015625
2020-12-01 18:41:29.1040,-0.4532313942909241,0.10394877195358276,-2.545094966888428,-0.7336578369140625,-2.3507843017578125,-0.183013916015625
2020-12-01 18:41:29.1350,-1.045729398727417,-2.6416802406311035,-1.7139757871627808,-1.0433349609375,-0.858673095703125,0.4409637451171875
2020-12-01 18:41:29.1520,-0.4416794180870056,0.050449859350919724,-2.6696972846984863,-1.119384765625,-0.694488525390625,0.499603271484375
2020-12-01 18:41:29.1690,-0.043653737753629684,2.656407833099365,-2.793454885482788,-0.764495849609375,-1.205810546875,0.8252716064453125
2020-12-01 18:41:29.1850,-0.043653737753629684,2.656407833099365,-2.793454885482788,-0.764495849609375,-1.205810546875,0.8252716064453125
2020-12-01 18:41:29.2040,0.4907830357551575,2.0613114833831787,-4.0516676902771005,-0.475067138671875,-0.7969970703125,0.2581329345703125
2020-12-01 18:41:29.2350,0.4684436321258545,-1.1036485433578491,-5.337710380554199,-0.117095947265625,-0.666595458984375,-0.3441925048828125
2020-12-01 18:41:29.2520,-0.8156929612159729,-5.094407081604004,-5.107353687286377,-0.6146392822265625,-1.5932464599609375,-0.336761474609375
2020-12-01 18:41:29.2690,-0.8156929612159729,-5.094407081604004,-5.107353687286377,-1.463348388671875,-1.6581878662109375,0.1619415283203125
2020-12-01 18:41:29.2860,-0.5786393880844116,-3.599349021911621,-5.724364280700684,-1.463348388671875,-1.6581878662109375,0.1619415283203125
2020-12-01 18:41:29.3040,-0.14686428010463715,-1.956318497657776,-5.552656650543213,-1.689056396484375,-1.6005096435546875,0.443145751953125
2020-12-01 18:41:29.3370,0.8756310939788818,1.2365435361862185,-2.9587721824646,0.0207672119140625,-2.5349884033203125,0.4897613525390625
2020-12-01 18:41:29.3520,0.8055968880653381,0.5470191240310669,-1.5735918283462524,0.23419189453125,-2.06756591796875,0.1102142333984375
2020-12-01 18:41:29.3700,0.8055968880653381,0.5470191240310669,-1.5735918283462524,0.1753387451171875,-1.3269805908203125,0.2041015625
2020-12-01 18:41:29.3860,0.7919982671737671,1.514585256576538,-0.057737864553928375,0.1753387451171875,-1.3269805908203125,0.2041015625
2020-12-01 18:41:29.4030,0.6524856686592102,2.418072462081909,2.1075761318206787,0.4918365478515625,-0.880157470703125,0.1405181884765625
2020-12-01 18:41:29.4360,-0.4914325773715973,0.7626571655273438,5.713174819946289,1.146392822265625,-0.6427001953125,0.28631591796875
2020-12-01 18:41:29.4530,-0.8258680701255798,-0.5776225924491882,6.329511642456055,0.8503265380859375,-0.46881103515625,0.02313232421875
2020-12-01 18:41:29.4700,-0.8258680701255798,-0.5776225924491882,6.329511642456055,0.293060302734375,-0.5527191162109375,0.04510498046875
2020-12-01 18:41:29.4860,-0.6094063520431519,-0.13114602863788605,7.184223651885986,0.293060302734375,-0.5527191162109375,0.04510498046875
2020-12-01 18:41:29.5050,-0.2933943271636963,1.397411227226257,7.812734603881836,-0.0622711181640625,-0.6832733154296875,0.184417724609375
2020-12-01 18:41:29.5360,-0.14342400431632996,2.3507273197174072,8.656044960021973,0.385223388671875,-0.943817138671875,-0.0142364501953125
2020-12-01 18:41:29.5530,-0.30847954750061035,2.0857288837432857,7.849976062774657,1.0883636474609375,-1.2163238525390625,0.07177734375
2020-12-01 18:41:29.5700,-0.30847954750061035,2.0857288837432857,7.849976062774657,1.782623291015625,-1.42608642578125,-0.0019989013671875
2020-12-01 18:41:29.5860,-0.4525133967399597,0.8297171592712402,6.501699924468994,1.782623291015625,-1.42608642578125,-0.0019989013671875
2020-12-01 18:41:29.6040,-1.0808253288269043,-1.0914560556411743,5.658987522125244,2.426055908203125,-2.000335693359375,0.6577301025390625
2020-12-01 18:41:29.6360,1.0518897771835327,2.3417809009552,1.5739977359771729,2.7474365234375,-0.8800811767578125,0.8425140380859375
2020-12-01 18:41:29.6530,1.950574278831482,-1.729024052619934,0.1000424474477768,3.4285125732421875,-0.1698760986328125,-0.1714630126953125
2020-12-01 18:41:29.6690,1.950574278831482,-1.729024052619934,0.1000424474477768,3.4285125732421875,-0.1698760986328125,-0.1714630126953125
2020-12-01 18:41:29.6860,1.5159962177276611,-7.061880588531494,0.2823773622512817,2.9061737060546875,0.1971435546875,3.070556640625
2020-12-01 18:41:29.7050,4.946053504943848,12.92808723449707,-7.033527851104736,5.113082885742188,-7.2592315673828125,3.4193115234375
2020-12-01 18:41:29.7350,0.16017235815525055,0.7842820286750793,-4.2596144676208505,0.1211090087890625,0.828399658203125,1.0853271484375
2020-12-01 18:41:29.7530,0.504414439201355,0.6209477186203003,-4.472607135772705,-0.61346435546875,-1.1337738037109375,-0.2203369140625
2020-12-01 18:41:29.7690,0.504414439201355,0.6209477186203003,-4.472607135772705,-0.61346435546875,-1.1337738037109375,-0.2203369140625
2020-12-01 18:41:29.7850,0.483941376209259,0.15840455889701846,-2.8789904117584233,1.438232421875,-1.5113677978515625,0.2203216552734375
2020-12-01 18:41:29.8040,-0.11412790417671205,-1.6860965490341189,-0.9852601289749146,1.3937835693359375,-1.6179962158203125,0.448333740234375
2020-12-01 18:41:29.8360,-0.6920279860496521,1.373986840248108,0.0052320463582873344,0.0014190673828125,-2.06585693359375,0.3439178466796875
2020-12-01 18:41:29.8530,-0.5115466117858887,2.205636978149414,0.018161959946155548,-0.5831146240234375,-2.091461181640625,0.346343994140625
2020-12-01 18:41:29.8690,-0.5115466117858887,2.205636978149414,0.018161959946155548,-0.5831146240234375,-2.091461181640625,0.346343994140625
2020-12-01 18:41:29.8860,-0.6076249480247498,0.9800358414649964,-1.614654302597046,-0.6375885009765625,-2.1060791015625,-0.135406494140625
2020-12-01 18:41:29.9040,-1.8331770896911619,-4.8387484550476065,0.3684906661510468,-0.6338043212890625,-2.576904296875,-0.730255126953125
2020-12-01 18:41:29.9360,-0.6113107800483704,-0.4761564135551453,-2.293591022491455,-1.133544921875,-0.5865020751953125,0.33551025390625
2020-12-01 18:41:29.9520,-0.6113107800483704,-0.4761564135551453,-2.293591022491455,-0.9635467529296876,-1.1872100830078125,0.803985595703125
2020-12-01 18:41:29.9690,-0.17505677044391632,1.3309046030044556,-3.6357152462005615,-0.9635467529296876,-1.1872100830078125,0.803985595703125
2020-12-01 18:41:29.9850,0.6253991723060608,1.602380871772766,-4.747648239135742,-1.161376953125,-0.8051910400390625,0.28558349609375
2020-12-01 18:41:30.0040,1.476025104522705,2.772759199142456,-4.8408546447753915,-0.81134033203125,-0.1850433349609375,0.0927886962890625
2020-12-01 18:41:30.0350,-0.07471445202827454,-3.932344913482666,-4.917684555053711,-0.5756988525390625,-1.7485809326171875,-0.5882110595703125
2020-12-01 18:41:30.0520,-0.07471445202827454,-3.932344913482666,-4.917684555053711,-0.5756988525390625,-1.7485809326171875,-0.5882110595703125
2020-12-01 18:41:30.0690,-0.4053293764591217,-4.596067428588867,-5.088252544403076,-0.9842529296875,-1.7451629638671875,0.0294647216796875
2020-12-01 18:41:30.0850,-0.046861782670021064,-2.3407020568847656,-5.455695152282715,-1.2653350830078125,-1.8302459716796875,0.34405517578125
2020-12-01 18:41:30.1050,0.3073767125606537,-1.0998519659042358,-3.990097522735596,-0.7412109375,-2.73974609375,0.1742401123046875
2020-12-01 18:41:30.1360,0.4766352474689484,0.9304384589195251,-0.7918406128883362,0.0914306640625,-1.522613525390625,0.2884674072265625
2020-12-01 18:41:30.1520,0.4766352474689484,0.9304384589195251,-0.7918406128883362,0.0914306640625,-1.522613525390625,0.2884674072265625
2020-12-01 18:41:30.1690,0.3082744777202606,2.3064215183258057,1.289400577545166,0.33447265625,-0.9892120361328124,0.3100738525390625
2020-12-01 18:41:30.1850,-0.2075132429599762,3.299971342086792,3.5571858882904053,0.57293701171875,-0.65728759765625,0.3352203369140625
2020-12-01 18:41:30.2040,-1.068942308425903,2.563759088516236,5.395380020141602,0.82159423828125,-0.45172119140625,0.36090087890625
2020-12-01 18:41:30.2360,-1.9343631267547607,-0.4346925914287567,7.229159832000732,0.496551513671875,-0.5020599365234375,0.2469329833984375
