Timestamp,gx,gy,gz,ax,ay,az
2020-12-01 18:30:03.4740,-0.04200630635023117,-0.025181252509355545,0.3564446568489075,0.0118865966796875,-0.0233154296875,-0.9474945068359376
2020-12-01 18:30:03.5050,-0.24232448637485504,0.1284905970096588,-0.16399213671684265,-0.0030975341796875,-0.04443359375,-0.8782501220703125
2020-12-01 18:30:03.5230,-0.33824223279953003,0.2622388005256653,-0.04515309631824493,0.0347747802734375,-0.0992889404296875,-0.834381103515625
2020-12-01 18:30:03.5400,-0.4712018668651581,0.2129780501127243,-0.14428021013736725,0.0425567626953125,-0.06256103515625,-0.81591796875
2020-12-01 18:30:03.5570,-0.5792649388313293,0.21576425433158875,-0.22732290625572205,0.0297088623046875,-0.019744873046875,-0.8396148681640625
2020-12-01 18:30:03.5770,-0.6633846163749695,0.3744827806949616,-0.2709718346595764,0.0370635986328125,0.000579833984375,-0.8577423095703125
2020-12-01 18:30:03.6080,-0.723338782787323,0.6631689071655273,-0.3731509447097778,0.0407257080078125,0.03350830078125,-0.865203857421875
2020-12-01 18:30:03.6250,-0.7583588361740112,0.6750090718269348,-0.4032715559005737,0.0539703369140625,0.0297088623046875,-0.90850830078125
2020-12-01 18:30:03.6420,-0.8404435515403748,0.8002610206604004,-0.4010486304759979,0.0970001220703125,-0.000579833984375,-0.907684326171875
2020-12-01 18:30:03.6580,-0.9755947589874268,1.160199761390686,-0.4039165675640106,0.0858917236328125,0.00457763671875,-0.8707122802734375
2020-12-01 18:30:03.6770,-1.124263048171997,1.6745042800903318,-0.4190273582935333,0.053192138671875,0.031158447265625,-0.8127288818359375
2020-12-01 18:30:03.7080,-1.2723358869552612,2.1558992862701416,-0.4503386616706848,0.0411376953125,0.0625152587890625,-0.8318023681640625
2020-12-01 18:30:03.7250,-1.43507981300354,2.5232598781585693,-0.5116167068481445,0.0867919921875,0.1528472900390625,-0.813018798828125
2020-12-01 18:30:03.7420,-1.5639336109161377,2.761632442474365,-0.6015241742134094,0.1221466064453125,0.253631591796875,-0.771636962890625
2020-12-01 18:30:03.7580,-1.6122134923934937,2.837670087814331,-0.6878089904785156,0.180633544921875,0.3345794677734375,-0.67437744140625
2020-12-01 18:30:03.7770,-1.6122134923934937,2.837670087814331,-0.6878089904785156,0.237640380859375,0.3995361328125,-0.58709716796875
2020-12-01 18:30:03.8080,-1.4520288705825806,2.844641923904419,-0.7499815821647644,0.2648773193359375,0.441162109375,-0.54400634765625
2020-12-01 18:30:03.8250,-1.538187026977539,2.9496662616729736,-0.8481667041778564,0.31072998046875,0.4581298828125,-0.541290283203125
2020-12-01 18:30:03.8420,-1.7476496696472168,2.751840114593506,-1.140184998512268,0.3366851806640625,0.489654541015625,-0.544708251953125
2020-12-01 18:30:03.8580,-1.653337478637695,2.3589422702789307,-1.6376938819885254,0.39453125,0.638641357421875,-0.620361328125
2020-12-01 18:30:03.8770,-1.653337478637695,2.3589422702789307,-1.6376938819885254,0.5366668701171875,0.8516693115234375,-0.623779296875
2020-12-01 18:30:03.9080,-1.2163721323013306,1.0432111024856567,-2.0149497985839844,0.614013671875,0.9623870849609376,-0.615509033203125
2020-12-01 18:30:03.9250,-1.2921537160873413,0.8474580645561218,-2.0451531410217285,0.5825042724609375,0.9280548095703124,-0.588775634765625
2020-12-01 18:30:03.9420,-1.4030680656433103,0.9569637775421144,-2.320683717727661,0.4343719482421875,0.8736114501953125,-0.530487060546875
2020-12-01 18:30:03.9580,-1.4622358083724976,1.3522706031799316,-2.6292970180511475,0.3372039794921875,0.866607666015625,-0.43756103515625
2020-12-01 18:30:03.9770,-1.4622358083724976,1.3522706031799316,-2.6292970180511475,0.3104400634765625,0.9083099365234376,-0.3361663818359375
2020-12-01 18:30:04.0080,-1.4104865789413452,2.6171295642852783,-3.25226092338562,0.2973785400390625,0.9904327392578124,-0.2636871337890625
2020-12-01 18:30:04.0250,-1.3399274349212646,2.9445745944976807,-3.655279874801636,0.3273468017578125,1.0908203125,-0.2355499267578125
2020-12-01 18:30:04.0420,-1.3059496879577637,3.0570766925811768,-4.0251126289367685,0.3779754638671875,1.18994140625,-0.212493896484375
2020-12-01 18:30:04.0580,-1.3059496879577637,3.0570766925811768,-4.0251126289367685,0.4204254150390625,1.276763916015625,-0.183135986328125
2020-12-01 18:30:04.0770,-1.3070392608642578,3.0635313987731934,-4.284508228302002,0.4521026611328125,1.3511962890625,-0.1987762451171875
2020-12-01 18:30:04.1080,-0.9239749312400818,2.2002027034759517,-4.18059778213501,0.4898834228515625,1.411590576171875,-0.27813720703125
2020-12-01 18:30:04.1250,-0.6011356115341187,1.7897003889083862,-3.988109588623047,0.5391387939453125,1.4880523681640625,-0.2880859375
2020-12-01 18:30:04.1420,-0.4008917510509491,1.4214733839035034,-3.872056007385254,0.6156768798828125,1.510772705078125,-0.3061676025390625
2020-12-01 18:30:04.1580,-0.4008917510509491,1.4214733839035034,-3.872056007385254,0.6292266845703125,1.455169677734375,-0.301727294921875
2020-12-01 18:30:04.1770,-0.3895541429519653,1.2178279161453247,-3.710579872131348,0.5986175537109375,1.3890533447265625,-0.2640838623046875
2020-12-01 18:30:04.2080,-0.2573931813240051,1.2000398635864258,-2.795743465423584,0.5923309326171875,1.3460693359375,-0.20947265625
2020-12-01 18:30:04.2250,-0.27310851216316223,0.9462605714797974,-2.4021310806274414,0.5824432373046875,1.3001861572265625,-0.1931610107421875
2020-12-01 18:30:04.2420,-0.4527246057987213,0.6336637735366821,-2.080275297164917,0.576141357421875,1.1844329833984375,-0.1843109130859375
2020-12-01 18:30:04.2590,-0.4527246057987213,0.6336637735366821,-2.080275297164917,0.5380859375,1.0825042724609375,-0.194305419921875
2020-12-01 18:30:04.2770,-0.6221567988395691,0.3046408593654633,-1.7874037027359009,0.5111083984375,1.0346832275390625,-0.2042694091796875
2020-12-01 18:30:04.3080,-0.7752344608306885,-0.6624541282653809,-1.38525652885437,0.4964599609375,0.9954681396484376,-0.217864990234375
2020-12-01 18:30:04.3250,-0.7063411474227905,-0.770268976688385,-1.1775768995285034,0.4951629638671875,0.931121826171875,-0.35076904296875
2020-12-01 18:30:04.3420,-0.3781968355178833,-0.710793673992157,-0.9184960126876832,0.466033935546875,0.8323822021484375,-0.3720855712890625
2020-12-01 18:30:04.3580,-0.3781968355178833,-0.710793673992157,-0.9184960126876832,0.4746551513671875,0.796417236328125,-0.3809356689453125
2020-12-01 18:30:04.3770,-0.13153032958507538,-0.5614654421806335,-0.6026475429534912,0.4167633056640625,0.759735107421875,-0.351226806640625
2020-12-01 18:30:04.4080,-0.06830368936061859,-0.3109621405601501,-0.11309459805488585,0.3437042236328125,0.7729644775390625,-0.348724365234375
2020-12-01 18:30:04.4250,-0.015224226750433443,-0.5845398902893066,0.09481359273195268,0.390960693359375,0.80084228515625,-0.3130645751953125
2020-12-01 18:30:04.4420,-0.0005320995696820319,-1.0129634141921997,0.18822823464870453,0.4149627685546875,0.7910003662109375,-0.335784912109375
2020-12-01 18:30:04.4580,-0.0005320995696820319,-1.0129634141921997,0.18822823464870453,0.3927154541015625,0.775421142578125,-0.341796875
2020-12-01 18:30:04.4770,-0.029267873615026474,-1.5323500633239746,0.3003939092159271,0.3704376220703125,0.77606201171875,-0.3101959228515625
2020-12-01 18:30:04.5080,-0.02262808009982109,-1.6183041334152222,0.9246993064880372,0.347259521484375,0.8481903076171875,-0.289642333984375
2020-12-01 18:30:04.5240,0.08299608528614044,-1.5936914682388306,1.2657554149627686,0.337615966796875,0.9328155517578124,-0.282562255859375
2020-12-01 18:30:04.5400,0.08299608528614044,-1.5936914682388306,1.2657554149627686,0.301544189453125,0.969085693359375,-0.29583740234375
2020-12-01 18:30:04.5560,0.2047962844371796,-1.54447603225708,1.4952821731567385,0.2833251953125,1.0032196044921875,-0.309844970703125
2020-12-01 18:30:04.5750,0.2846865952014923,-1.6344453096389768,1.5976966619491575,0.2987518310546875,1.028717041015625,-0.298828125
2020-12-01 18:30:04.6080,0.3706246614456177,-1.6088677644729614,1.9356701374053955,0.286529541015625,1.0880889892578125,-0.2673187255859375
2020-12-01 18:30:04.6250,0.5904169678688049,-1.1875903606414795,2.2284650802612305,0.258880615234375,1.2585601806640625,-0.2400360107421875
2020-12-01 18:30:04.6410,0.5904169678688049,-1.1875903606414795,2.2284650802612305,0.2273406982421875,1.4882354736328125,-0.1512603759765625
2020-12-01 18:30:04.6580,0.8457595109939575,-0.5764566659927368,2.387558460235596,0.1991424560546875,1.62664794921875,-0.0787811279296875
2020-12-01 18:30:04.6770,0.8801127076148987,-0.06524504721164702,2.1365320682525635,0.1754913330078125,1.61553955078125,-0.1011810302734375
2020-12-01 18:30:04.7080,0.5720118284225464,0.7149308919906616,1.943102240562439,0.27557373046875,1.590240478515625,-0.0901031494140625
2020-12-01 18:30:04.7250,0.6470240354537964,0.8148942589759827,2.417610645294189,0.3435516357421875,1.4589996337890625,-0.051116943359375
2020-12-01 18:30:04.7410,0.6470240354537964,0.8148942589759827,2.417610645294189,0.3267822265625,1.2470855712890625,-0.01910400390625
2020-12-01 18:30:04.7590,0.6912367939949036,0.6962584257125854,2.856006860733032,0.2264862060546875,1.0615692138671875,0.0028839111328125
2020-12-01 18:30:04.7770,0.6176943778991699,0.4178691506385803,3.0009031295776367,0.154632568359375,1.0170440673828125,-0.032440185546875
2020-12-01 18:30:04.8080,0.3926844298839569,-0.4643296003341675,2.5780246257781982,0.1700897216796875,1.1573333740234375,-0.0554046630859375
2020-12-01 18:30:04.8250,0.42196801304817205,-0.8845686912536621,2.608741283416748,0.2372894287109375,1.294097900390625,-0.023712158203125
2020-12-01 18:30:04.8420,0.42196801304817205,-0.8845686912536621,2.608741283416748,0.17376708984375,1.2636871337890625,0.024627685546875
2020-12-01 18:30:04.8580,0.5363979339599609,-1.0969618558883667,2.6362743377685547,0.007080078125,1.0807342529296875,0.103973388671875
2020-12-01 18:30:04.8760,0.5018074512481691,-0.9922125935554504,2.474879503250122,-0.114715576171875,0.942291259765625,0.112152099609375
2020-12-01 18:30:04.9080,0.09045692533254623,-0.2483474910259247,1.2558109760284424,-0.1326141357421875,0.9237213134765624,0.0880279541015625
2020-12-01 18:30:04.9250,-0.13933205604553225,-0.12166411429643632,0.775574803352356,-0.0290374755859375,0.932373046875,0.059173583984375
2020-12-01 18:30:04.9420,-0.13933205604553225,-0.12166411429643632,0.775574803352356,0.1089019775390625,0.900360107421875,0.057098388671875
2020-12-01 18:30:04.9580,-0.2630201876163483,-0.1848958134651184,0.6637851595878601,0.1896209716796875,0.8618621826171875,0.0154571533203125
2020-12-01 18:30:04.9770,-0.2989691197872162,-0.4375270009040833,0.7627687454223633,0.1896209716796875,0.8618621826171875,0.0154571533203125
2020-12-01 18:30:05.0080,-0.2867555916309357,-0.8971492052078247,0.4605668187141418,0.1579437255859375,0.8700714111328125,-0.0248565673828125
2020-12-01 18:30:05.0250,-0.3237735331058502,-0.9540585279464722,0.1448807567358017,0.1336822509765625,0.844329833984375,-0.0287017822265625
2020-12-01 18:30:05.0420,-0.3237735331058502,-0.9540585279464722,0.1448807567358017,0.1357269287109375,0.805206298828125,-0.035736083984375
2020-12-01 18:30:05.0580,-0.4095171988010407,-0.8747459053993225,-0.0860680416226387,0.1327667236328125,0.791168212890625,-0.02899169921875
2020-12-01 18:30:05.0770,-0.5241700410842896,-0.5949475169181824,-0.3220456838607788,0.1327667236328125,0.791168212890625,-0.02899169921875
2020-12-01 18:30:05.1080,-0.5714877247810364,0.07299111783504486,-0.9136527776718141,0.104095458984375,0.87725830078125,-0.0435333251953125
2020-12-01 18:30:05.1250,-0.5714877247810364,0.07299111783504486,-0.9136527776718141,0.12884521484375,0.875213623046875,-0.0667266845703125
2020-12-01 18:30:05.1420,-0.5749727487564087,0.3017164468765259,-1.2295478582382202,0.16741943359375,0.881439208984375,-0.1029510498046875
2020-12-01 18:30:05.1580,-0.5725979804992676,0.37311527132987976,-1.5172874927520752,0.19915771484375,0.950347900390625,-0.131561279296875
2020-12-01 18:30:05.1770,-0.5688663721084595,0.3756314218044281,-1.749271035194397,0.19915771484375,0.950347900390625,-0.131561279296875
2020-12-01 18:30:05.2080,-0.4050188660621643,0.4111404120922089,-2.0457584857940674,0.2252044677734375,1.073699951171875,-0.1257781982421875
2020-12-01 18:30:05.2250,-0.4050188660621643,0.4111404120922089,-2.0457584857940674,0.245025634765625,1.0938720703125,-0.1308746337890625
2020-12-01 18:30:05.2420,-0.3438010513782501,0.4912741184234619,-2.1367721557617188,0.265411376953125,1.1271209716796875,-0.1576995849609375
2020-12-01 18:30:05.2580,-0.20180769264698029,0.7142054438591003,-2.1554174423217773,0.265411376953125,1.1271209716796875,-0.1576995849609375
2020-12-01 18:30:05.2770,0.0029862024821341038,0.7751274108886719,-2.1448934078216557,0.24713134765625,1.1850738525390625,-0.169158935546875
2020-12-01 18:30:05.3080,0.08757911622524261,1.2709813117980957,-2.263702392578125,0.208160400390625,1.38189697265625,-0.093994140625
2020-12-01 18:30:05.3250,0.08757911622524261,1.2709813117980957,-2.263702392578125,0.223052978515625,1.5286102294921875,-0.0894317626953125
2020-12-01 18:30:05.3420,0.02786571905016899,1.354094386100769,-2.504441499710083,0.3156585693359375,1.67535400390625,-0.065948486328125
2020-12-01 18:30:05.3580,-0.024534637108445168,1.4355179071426392,-2.6243150234222408,0.3156585693359375,1.67535400390625,-0.065948486328125
2020-12-01 18:30:05.3770,-0.06329934298992157,1.5859792232513428,-2.500342845916748,0.3947906494140625,1.66107177734375,-0.079559326171875
2020-12-01 18:30:05.4080,-0.3378166556358337,2.139923095703125,-1.838145732879639,0.43475341796875,1.0862884521484375,-0.042572021484375
2020-12-01 18:30:05.4250,-0.3378166556358337,2.139923095703125,-1.838145732879639,0.414031982421875,0.9164581298828124,-0.1091461181640625
2020-12-01 18:30:05.4420,-0.3181726336479187,2.043628692626953,-1.4721032381057741,0.361083984375,0.8668670654296875,-0.1507110595703125
2020-12-01 18:30:05.4580,-0.2445213347673416,1.6320465803146362,-1.2643219232559204,0.361083984375,0.8668670654296875,-0.1507110595703125
2020-12-01 18:30:05.4760,-0.20430706441402435,1.0814100503921509,-1.117054104804993,0.3141632080078125,0.8922882080078125,-0.196929931640625
2020-12-01 18:30:05.5080,-0.08917142450809479,0.6054443717002869,-0.8164178729057312,0.2842254638671875,0.821441650390625,-0.197723388671875
2020-12-01 18:30:05.5250,-0.08917142450809479,0.6054443717002869,-0.8164178729057312,0.20867919921875,0.7556610107421875,-0.2118988037109375
2020-12-01 18:30:05.5420,0.03882276266813278,0.3745038211345673,-0.8124763965606691,0.1572723388671875,0.72149658203125,-0.1929779052734375
2020-12-01 18:30:05.5580,0.11805420368909834,0.26473870873451233,-0.7737904787063599,0.1572723388671875,0.72149658203125,-0.1929779052734375
2020-12-01 18:30:05.5770,0.11454575508832933,0.3735216557979584,-0.7746374011039734,0.1241455078125,0.725372314453125,-0.17254638671875
2020-12-01 18:30:05.6080,0.0180857926607132,0.4667807519435882,-0.8043478727340698,0.2158203125,0.810699462890625,-0.141571044921875
2020-12-01 18:30:05.6250,-0.10362838953733444,0.5792529582977295,-0.7442073225975037,0.260833740234375,0.81640625,-0.1448211669921875
2020-12-01 18:30:05.6420,-0.17837586998939514,0.4812861979007721,-0.6217221617698669,0.264801025390625,0.8453826904296875,-0.198455810546875
2020-12-01 18:30:05.6580,-0.20588845014572146,0.11906780302524568,-0.5891314148902893,0.264801025390625,0.8453826904296875,-0.198455810546875
2020-12-01 18:30:05.6760,-0.10231758654117584,-0.2410230040550232,-0.4503312110900879,0.3208770751953125,0.9255828857421876,-0.2649078369140625
2020-12-01 18:30:05.7080,0.12092509120702745,-0.5431684851646423,-0.12222231179475786,0.364288330078125,0.977874755859375,-0.3026885986328125
2020-12-01 18:30:05.7250,0.2361960262060165,-0.6643242239952087,0.19134412705898285,0.3003997802734375,0.90667724609375,-0.2668609619140625
2020-12-01 18:30:05.7420,0.21809931099414825,-0.4648771286010742,0.3868134915828705,0.26629638671875,0.8530426025390625,-0.21929931640625
2020-12-01 18:30:05.7580,0.12793639302253726,-0.3443525731563568,0.5608140230178833,0.26629638671875,0.8530426025390625,-0.21929931640625
2020-12-01 18:30:05.7760,0.07836484909057617,-0.2966063618659973,0.750016987323761,0.2456207275390625,0.8415679931640625,-0.2240142822265625
2020-12-01 18:30:05.8080,0.12890072166919708,-0.322482168674469,0.8567218780517578,0.263702392578125,1.00714111328125,-0.262359619140625
2020-12-01 18:30:05.8250,0.2357323616743088,-0.5007358193397522,0.924566686153412,0.264190673828125,1.03289794921875,-0.2457427978515625
2020-12-01 18:30:05.8420,0.29315757751464844,-0.5739617943763733,0.9936946630477904,0.264190673828125,1.03289794921875,-0.2457427978515625
2020-12-01 18:30:05.8580,0.24704042077064514,-0.5262323617935181,1.0696098804473877,0.274932861328125,1.0331268310546875,-0.2346343994140625
2020-12-01 18:30:05.8770,0.20965948700904846,-0.4512486755847931,1.209172606468201,0.2604827880859375,1.0380706787109375,-0.2080230712890625
2020-12-01 18:30:05.9080,0.2255817204713821,-0.3664443194866181,1.3423929214477541,0.183349609375,0.98101806640625,-0.18756103515625
2020-12-01 18:30:05.9250,0.24711817502975464,-0.2530591487884521,1.442496657371521,0.1175689697265625,0.96636962890625,-0.160858154296875
2020-12-01 18:30:05.9420,0.20958039164543152,-0.2956231236457825,1.4754500389099119,0.1175689697265625,0.96636962890625,-0.160858154296875
2020-12-01 18:30:05.9580,0.09000126272439958,-0.4401842951774597,1.323908805847168,0.0677337646484375,0.9714202880859376,-0.172088623046875
2020-12-01 18:30:05.9760,0.005407814867794514,-0.8508562445640564,1.1318272352218628,0.0892181396484375,1.0401611328125,-0.206512451171875
2020-12-01 18:30:06.0080,0.08835089951753616,-1.3306050300598145,1.0802910327911377,0.24359130859375,1.316131591796875,-0.2961273193359375
2020-12-01 18:30:06.0250,0.3047407269477844,-1.795907735824585,1.156546115875244,0.2548828125,1.383331298828125,-0.28192138671875
2020-12-01 18:30:06.0420,0.5407662987709045,-2.0211567878723145,1.301584243774414,0.2548828125,1.383331298828125,-0.28192138671875
2020-12-01 18:30:06.0580,0.6463406682014465,-1.9431424140930176,1.3964202404022217,0.2320404052734375,1.359161376953125,-0.2248382568359375
2020-12-01 18:30:06.0770,0.5736342668533325,-1.6974738836288452,1.4261139631271362,0.195404052734375,1.31689453125,-0.2005767822265625
2020-12-01 18:30:06.1080,0.4732341468334198,-1.4033684730529783,1.4945840835571291,0.1703948974609375,1.210906982421875,-0.1423492431640625
2020-12-01 18:30:06.1250,0.3950937986373901,-1.1996076107025146,1.5061776638031006,0.157684326171875,1.162750244140625,-0.1449432373046875
2020-12-01 18:30:06.1420,0.4336305260658264,-0.9036728739738464,1.511159896850586,0.157684326171875,1.162750244140625,-0.1449432373046875
2020-12-01 18:30:06.1580,0.5483635067939758,-0.5906776785850525,1.498297929763794,0.15655517578125,1.16522216796875,-0.153839111328125
2020-12-01 18:30:06.1770,0.5677435994148254,-0.3174695670604706,1.4728335142135618,0.14239501953125,1.1148681640625,-0.1353607177734375
2020-12-01 18:30:06.2080,0.4636747241020202,-0.04652063176035881,1.4881200790405271,0.142242431640625,0.8801422119140625,-0.078125
2020-12-01 18:30:06.2250,0.304995059967041,-0.010334663093090056,1.49449622631073,0.1676025390625,0.8339080810546875,-0.10498046875
2020-12-01 18:30:06.2420,0.18278712034225464,-0.17112407088279724,1.5136041641235352,0.1676025390625,0.8339080810546875,-0.10498046875
2020-12-01 18:30:06.2580,0.15075169503688812,-0.421886533498764,1.5402528047561646,0.1939239501953125,0.8533782958984375,-0.1165313720703125
2020-12-01 18:30:06.2770,0.158175528049469,-0.6791417598724365,1.3820226192474363,0.156585693359375,0.8574981689453125,-0.1187591552734375
2020-12-01 18:30:06.3080,0.09557419270277023,-0.9789910316467284,1.1284468173980713,0.09710693359375,0.7652740478515625,-0.07696533203125
2020-12-01 18:30:06.3250,-0.020625116303563118,-1.0202873945236206,0.912456214427948,0.10076904296875,0.74249267578125,-0.071258544921875
2020-12-01 18:30:06.3420,-0.10702764987945557,-0.9684678316116332,0.745680034160614,0.10076904296875,0.74249267578125,-0.071258544921875
2020-12-01 18:30:06.3580,-0.07423029094934464,-0.9031460881233216,0.5988810062408447,0.0992279052734375,0.7881011962890625,-0.08990478515625
2020-12-01 18:30:06.3770,-0.0009954896522685883,-0.743876039981842,0.42760354280471796,0.0923919677734375,0.851654052734375,-0.0921630859375
2020-12-01 18:30:06.4080,-0.03003273345530033,-0.4717539548873901,0.17492200434207916,0.096893310546875,0.851715087890625,-0.101776123046875
2020-12-01 18:30:06.4250,-0.13822685182094574,-0.21038733422756195,-0.10164166986942293,0.096893310546875,0.851715087890625,-0.101776123046875
2020-12-01 18:30:06.4420,-0.27812936902046204,-0.016768859699368473,-0.2940052449703217,0.119476318359375,0.8363494873046875,-0.1048431396484375
2020-12-01 18:30:06.4580,-0.3757017254829407,0.061990667134523385,-0.4615082442760468,0.1423492431640625,0.8731689453125,-0.1218109130859375
2020-12-01 18:30:06.4770,-0.4178081452846527,0.07688625901937485,-0.6200811266899109,0.150390625,0.9150390625,-0.1445159912109375
2020-12-01 18:30:06.5080,-0.4207770526409149,0.09840673208236694,-0.7766273021697998,0.1606597900390625,0.9650115966796876,-0.173370361328125
2020-12-01 18:30:06.5250,-0.4558596611022949,0.15794409811496735,-0.9204294681549072,0.1606597900390625,0.9650115966796876,-0.173370361328125
2020-12-01 18:30:06.5420,-0.5310966372489929,0.2696016430854797,-1.0875284671783447,0.167327880859375,1.0032501220703125,-0.1826324462890625
2020-12-01 18:30:06.5580,-0.5867849588394165,0.4095760583877564,-1.2068819999694824,0.1750335693359375,1.031890869140625,-0.202667236328125
2020-12-01 18:30:06.5770,-0.5597711801528931,0.5461528301239014,-1.2873371839523315,0.174163818359375,1.0595855712890625,-0.217437744140625
2020-12-01 18:30:06.6080,-0.5185747146606445,0.7160904407501221,-1.4634355306625366,0.143035888671875,1.2648773193359375,-0.24493408203125
2020-12-01 18:30:06.6250,-0.478228896856308,0.922897458076477,-1.688326358795166,0.143035888671875,1.2648773193359375,-0.24493408203125
2020-12-01 18:30:06.6420,-0.4423505067825317,1.165241837501526,-1.9559881687164309,0.1466064453125,1.3697052001953125,-0.2254180908203125
2020-12-01 18:30:06.6580,-0.3945989906787872,1.3037382364273071,-2.1951465606689453,0.1667327880859375,1.461822509765625,-0.25018310546875
2020-12-01 18:30:06.6770,-0.4098791182041168,1.6266465187072754,-2.175680160522461,0.2441253662109375,1.4088287353515625,-0.217041015625
2020-12-01 18:30:06.7080,-0.4755745232105255,2.0034313201904297,-1.9950453042984009,0.31414794921875,1.136260986328125,-0.202178955078125
2020-12-01 18:30:06.7250,-0.5278510451316833,2.194345712661743,-1.789339542388916,0.31414794921875,1.136260986328125,-0.202178955078125
2020-12-01 18:30:06.7420,-0.5358996391296387,1.9930295944213867,-1.5986542701721191,0.3468475341796875,1.126800537109375,-0.2413787841796875
2020-12-01 18:30:06.7580,-0.4760016798973084,1.5450686216354368,-1.4118154048919678,0.394378662109375,1.1116790771484375,-0.304962158203125
2020-12-01 18:30:06.7760,-0.3575466871261597,0.9861160516738892,-1.1741011142730713,0.4223480224609375,1.01263427734375,-0.3259124755859375
2020-12-01 18:30:06.8070,-0.2374248057603836,0.4979197680950165,-0.8892574310302734,0.425994873046875,0.8596954345703125,-0.3397064208984375
2020-12-01 18:30:06.8250,-0.051653608679771416,0.1629801243543625,-0.5422531366348267,0.3868255615234375,0.7569427490234375,-0.328155517578125
2020-12-01 18:30:06.8420,0.08240938931703568,0.13229918479919436,-0.28940969705581665,0.327728271484375,0.66387939453125,-0.2965240478515625
2020-12-01 18:30:06.8580,0.14742380380630493,0.27259743213653564,-0.1802200973033905,0.2623291015625,0.64117431640625,-0.25494384765625
2020-12-01 18:30:06.8770,0.14633910357952118,0.4246287941932678,-0.17517368495464325,0.2161407470703125,0.656402587890625,-0.2162933349609375
2020-12-01 18:30:06.9080,0.0674661248922348,0.5132688879966736,-0.2208940237760544,0.2093505859375,0.6948699951171875,-0.1879119873046875
2020-12-01 18:30:06.9250,-0.026128539815545082,0.4002304971218109,-0.29201772809028625,0.2225341796875,0.7403106689453125,-0.20050048828125
2020-12-01 18:30:06.9420,-0.07233971357345581,0.11046072840690613,-0.3670704066753388,0.253204345703125,0.8077392578125,-0.2377471923828125
2020-12-01 18:30:06.9580,-0.07075166702270508,-0.15393896400928495,-0.3958767652511597,0.2655029296875,0.8553466796875,-0.25567626953125
2020-12-01 18:30:06.9770,-0.08661265671253204,-0.20373103022575376,-0.4287678599357605,0.2455291748046875,0.88580322265625,-0.2653045654296875
2020-12-01 18:30:07.0080,-0.026915237307548526,-0.13243819773197174,-0.3574446737766266,0.240509033203125,0.9249267578125,-0.28375244140625
2020-12-01 18:30:07.0250,-0.01570173166692257,-0.08811361342668532,-0.2543103098869324,0.249420166015625,0.958526611328125,-0.28424072265625
2020-12-01 18:30:07.0420,-0.08109458535909653,-0.05269570276141167,-0.2412935793399811,0.275360107421875,0.9663543701171876,-0.270660400390625
2020-12-01 18:30:07.0580,-0.16385072469711304,-0.22499583661556244,-0.1972414255142212,0.29888916015625,0.9400787353515624,-0.2845001220703125
2020-12-01 18:30:07.0770,-0.16385072469711304,-0.22499583661556244,-0.1972414255142212,0.32659912109375,0.962646484375,-0.31304931640625
2020-12-01 18:30:07.1080,-0.09061352163553238,-0.5596095323562622,0.04898325353860855,0.3292083740234375,1.0301666259765625,-0.330413818359375
2020-12-01 18:30:07.1250,-0.02681190706789494,-0.5548959970474243,0.14425118267536166,0.31048583984375,1.0391387939453125,-0.3274078369140625
2020-12-01 18:30:07.1420,-0.01883254386484623,-0.4111119210720062,0.2466737031936645,0.29595947265625,0.978729248046875,-0.3069610595703125
2020-12-01 18:30:07.1580,-0.012362127192318441,-0.224750816822052,0.3508307337760925,0.30047607421875,0.9514007568359376,-0.3062744140625
2020-12-01 18:30:07.1770,-0.012362127192318441,-0.224750816822052,0.3508307337760925,0.299774169921875,0.9688262939453124,-0.32171630859375
2020-12-01 18:30:07.2080,0.1952669620513916,-0.10479911416769028,0.5813896059989929,0.297515869140625,1.012786865234375,-0.3382568359375
2020-12-01 18:30:07.2250,0.2746451497077942,-0.18892838060855865,0.5946300625801086,0.2999420166015625,1.105377197265625,-0.3447418212890625
2020-12-01 18:30:07.2420,0.333393931388855,-0.27073350548744196,0.5992724895477295,0.3233489990234375,1.2180023193359375,-0.33563232421875
2020-12-01 18:30:07.2580,0.4084484875202179,-0.35968947410583496,0.7091268301010132,0.341461181640625,1.2861328125,-0.3302459716796875
2020-12-01 18:30:07.2770,0.4084484875202179,-0.35968947410583496,0.7091268301010132,0.3509674072265625,1.2993927001953125,-0.2992706298828125
2020-12-01 18:30:07.3080,0.6010109782218933,-0.3617901504039765,1.0666308403015137,0.341461181640625,1.2508087158203125,-0.2471466064453125
2020-12-01 18:30:07.3250,0.6201700568199158,-0.44631463289260864,1.2295753955841064,0.3371429443359375,1.175079345703125,-0.2142486572265625
2020-12-01 18:30:07.3420,0.6016325950622559,-0.6236206889152527,1.4291715621948242,0.353271484375,1.1515655517578125,-0.1949005126953125
2020-12-01 18:30:07.3580,0.6016325950622559,-0.6236206889152527,1.4291715621948242,0.365966796875,1.1842803955078125,-0.181182861328125
2020-12-01 18:30:07.3770,0.5934449434280396,-0.8503084182739258,1.6396193504333496,0.341400146484375,1.1795501708984375,-0.168182373046875
2020-12-01 18:30:07.4080,0.6587978601455688,-1.0996918678283691,1.986362099647522,0.297088623046875,1.1075286865234375,-0.13006591796875
2020-12-01 18:30:07.4240,0.6571949124336243,-1.0419045686721802,2.110492467880249,0.2544097900390625,0.9970550537109376,-0.1073455810546875
2020-12-01 18:30:07.4420,0.6214315891265869,-0.9610485434532166,2.123013973236084,0.211273193359375,0.893218994140625,-0.086181640625
2020-12-01 18:30:07.4580,0.6214315891265869,-0.9610485434532166,2.123013973236084,0.167144775390625,0.8106231689453125,-0.0827484130859375
2020-12-01 18:30:07.4770,0.5857287049293518,-0.8944609761238098,2.051790714263916,0.1465301513671875,0.7911376953125,-0.10308837890625
2020-12-01 18:30:07.5080,0.583465576171875,-0.7777658104896545,1.8753498792648315,0.1395111083984375,0.8318634033203125,-0.1128997802734375
2020-12-01 18:30:07.5250,0.6448596715927124,-0.7655024528503418,1.7742719650268557,0.124603271484375,0.84283447265625,-0.107330322265625
2020-12-01 18:30:07.5420,0.6469936966896057,-0.7369736433029175,1.5739188194274902,0.1009368896484375,0.8058013916015625,-0.0897064208984375
2020-12-01 18:30:07.5580,0.6469936966896057,-0.7369736433029175,1.5739188194274902,0.09246826171875,0.7797698974609375,-0.0814666748046875
2020-12-01 18:30:07.5770,0.573974072933197,-0.7237030863761902,1.347886323928833,0.106475830078125,0.8019866943359375,-0.0782012939453125
2020-12-01 18:30:07.6080,0.42779341340065,-0.4625133275985718,0.9498081207275392,0.1026763916015625,0.837677001953125,-0.0843048095703125
2020-12-01 18:30:07.6250,0.41269782185554493,-0.3480293452739716,0.7362561821937561,0.084442138671875,0.846649169921875,-0.0931396484375
2020-12-01 18:30:07.6420,0.3492112457752228,-0.1872093081474304,0.5039995312690735,0.076080322265625,0.854949951171875,-0.093597412109375
2020-12-01 18:30:07.6580,0.3492112457752228,-0.1872093081474304,0.5039995312690735,0.072174072265625,0.900970458984375,-0.0955352783203125
2020-12-01 18:30:07.6770,0.19714529812335968,0.007261641323566438,0.16598764061927795,0.0718231201171875,0.9720306396484376,-0.107696533203125
2020-12-01 18:30:07.7080,-0.1796073168516159,0.17131689190864566,-0.4714024066925049,0.087615966796875,1.038238525390625,-0.1295318603515625
2020-12-01 18:30:07.7250,-0.349301278591156,0.21361668407917025,-0.6860614418983461,0.1075897216796875,1.052001953125,-0.1459503173828125
2020-12-01 18:30:07.7420,-0.5138284564018251,0.2780441343784332,-0.9306592345237732,0.114654541015625,0.9839630126953124,-0.1573944091796875
2020-12-01 18:30:07.7580,-0.5138284564018251,0.2780441343784332,-0.9306592345237732,0.1047515869140625,1.0193023681640625,-0.1806488037109375
2020-12-01 18:30:07.7770,-0.5844232439994812,0.2851433157920837,-1.215050220489502,0.0887908935546875,1.18634033203125,-0.204010009765625
2020-12-01 18:30:07.8080,-0.6916439533233643,0.4741646349430084,-1.9974265098571775,0.0677032470703125,1.3418426513671875,-0.2163848876953125
2020-12-01 18:30:07.8250,-0.766896665096283,0.7897382974624634,-2.3216321468353267,0.0913543701171875,1.4144134521484375,-0.2083587646484375
2020-12-01 18:30:07.8420,-0.913716733455658,1.2621148824691772,-2.4250144958496094,0.1636962890625,1.29254150390625,-0.18328857421875
2020-12-01 18:30:07.8580,-0.913716733455658,1.2621148824691772,-2.4250144958496094,0.2102203369140625,1.1710052490234375,-0.1819305419921875
2020-12-01 18:30:07.8770,-1.0394158363342283,1.6407508850097656,-2.416409492492676,0.251251220703125,1.2145233154296875,-0.23187255859375
2020-12-01 18:30:07.9080,-0.97231262922287,1.4741283655166626,-2.3411428928375244,0.3110809326171875,1.3055877685546875,-0.3165435791015625
2020-12-01 18:30:07.9250,-0.7592024803161621,1.231785774230957,-2.2204859256744385,0.353790283203125,1.2856597900390625,-0.381622314453125
2020-12-01 18:30:07.9420,-0.7592024803161621,1.231785774230957,-2.2204859256744385,0.3696136474609375,1.178436279296875,-0.3838958740234375
2020-12-01 18:30:07.9580,-0.5619261860847473,1.042014479637146,-2.0175914764404297,0.3836517333984375,1.0233612060546875,-0.3405303955078125
2020-12-01 18:30:07.9770,-0.4492931067943573,1.0124635696411133,-1.7254698276519775,0.3917083740234375,0.85296630859375,-0.3151092529296875
2020-12-01 18:30:08.0080,-0.4517645239830017,0.903107762336731,-1.0229725837707522,0.40069580078125,0.711181640625,-0.3030853271484375
2020-12-01 18:30:08.0250,-0.4082016050815582,0.7912986278533936,-0.7738709449768066,0.3826904296875,0.6330108642578125,-0.2973785400390625
2020-12-01 18:30:08.0420,-0.4082016050815582,0.7912986278533936,-0.7738709449768066,0.3266754150390625,0.6472015380859375,-0.32403564453125
2020-12-01 18:30:08.0580,-0.2438041418790817,0.5425493121147156,-0.7013453245162964,0.2902069091796875,0.6888580322265625,-0.3440093994140625
2020-12-01 18:30:08.0770,-0.14715935289859772,0.24718210101127625,-0.7702975273132324,0.2912445068359375,0.7379150390625,-0.331298828125
2020-12-01 18:30:08.1080,-0.13339640200138092,0.1995043158531189,-0.7895870208740234,0.2977752685546875,0.765411376953125,-0.3058624267578125
2020-12-01 18:30:08.1250,-0.13379375636577606,-0.06338296830654144,-0.7204649448394775,0.32952880859375,0.773651123046875,-0.32763671875
2020-12-01 18:30:08.1420,-0.13379375636577606,-0.06338296830654144,-0.7204649448394775,0.450164794921875,0.80535888671875,-0.366455078125
2020-12-01 18:30:08.1580,-0.15179085731506348,-0.3443094491958618,-0.6096204519271851,0.5023345947265625,0.8530120849609375,-0.3881988525390625
2020-12-01 18:30:08.1760,-0.20821179449558255,-0.6543631553649902,-0.5142055153846741,0.4475555419921875,0.899505615234375,-0.4020538330078125
2020-12-01 18:30:08.2080,-0.1504819095134735,-0.6733040809631348,-0.4040231108665466,0.4044036865234375,0.9239044189453124,-0.415252685546875
2020-12-01 18:30:08.2250,-0.15672889351844788,-0.44348528981208796,-0.2972143590450287,0.4141845703125,0.943572998046875,-0.4150543212890625
2020-12-01 18:30:08.2420,-0.15672889351844788,-0.44348528981208796,-0.2972143590450287,0.4088287353515625,1.0038299560546875,-0.4209442138671875
2020-12-01 18:30:08.2580,-0.16823294758796692,-0.18099482357501984,-0.20393341779708865,0.4023284912109375,1.0800933837890625,-0.402923583984375
2020-12-01 18:30:08.2770,-0.05769338831305504,0.2215385138988495,-0.049366217106580734,0.389373779296875,1.10333251953125,-0.39697265625
2020-12-01 18:30:08.3080,0.17401307821273804,0.8744590282440186,0.3793396055698395,0.404754638671875,1.0376129150390625,-0.3778533935546875
2020-12-01 18:30:08.3250,0.1616608053445816,1.0098395347595217,0.5750340223312378,0.406646728515625,0.960357666015625,-0.3514404296875
2020-12-01 18:30:08.3420,0.1616608053445816,1.0098395347595217,0.5750340223312378,0.3863525390625,1.056365966796875,-0.3553924560546875
2020-12-01 18:30:08.3580,0.1495428830385208,0.8921307325363159,0.6513705849647522,0.4002532958984375,1.2236480712890625,-0.356170654296875
2020-12-01 18:30:08.3770,0.14174488186836245,0.5780960917472839,0.64579176902771,0.4002532958984375,1.2236480712890625,-0.356170654296875
2020-12-01 18:30:08.4080,0.4374343156814575,-0.19344882667064667,0.9951894879341124,0.465545654296875,1.524017333984375,-0.3541412353515625
2020-12-01 18:30:08.4250,0.4374343156814575,-0.19344882667064667,0.9951894879341124,0.4774017333984375,1.426727294921875,-0.3087615966796875
2020-12-01 18:30:08.4420,0.5637288689613342,-0.3419453501701355,1.3649981021881104,0.43389892578125,1.2364501953125,-0.2287750244140625
2020-12-01 18:30:08.4590,0.5670154690742493,-0.4834337830543518,1.640561580657959,0.40228271484375,1.1657257080078125,-0.1964569091796875
2020-12-01 18:30:08.4770,0.566054105758667,-0.6460895538330078,1.888726592063904,0.40228271484375,1.1657257080078125,-0.1964569091796875
2020-12-01 18:30:08.5080,0.6823766827583313,-0.9262223839759828,2.34450912475586,0.31781005859375,1.19818115234375,-0.169921875
2020-12-01 18:30:08.5250,0.6823766827583313,-0.9262223839759828,2.34450912475586,0.2150421142578125,1.0406494140625,-0.0974578857421875
2020-12-01 18:30:08.5420,0.677912175655365,-0.722446620464325,2.446233034133911,0.1320037841796875,0.8953399658203125,-0.050048828125
2020-12-01 18:30:08.5590,0.5786495208740234,-0.4287191331386566,2.417948007583618,0.1086883544921875,0.793426513671875,-0.04071044921875
2020-12-01 18:30:08.5770,0.4579976499080658,-0.2564235329627991,2.3361313343048096,0.1086883544921875,0.793426513671875,-0.04071044921875
2020-12-01 18:30:08.6080,0.44488877058029175,-0.555223822593689,2.3527114391326904,0.20989990234375,0.86004638671875,-0.138397216796875
2020-12-01 18:30:08.6250,0.44488877058029175,-0.555223822593689,2.3527114391326904,0.18365478515625,0.8509063720703125,-0.1368560791015625
2020-12-01 18:30:08.6420,0.4916834533214569,-0.7881430983543396,2.306666612625122,0.128143310546875,0.775238037109375,-0.091522216796875
2020-12-01 18:30:08.6580,0.5098443627357483,-0.8639749884605408,2.2116143703460693,0.128143310546875,0.775238037109375,-0.091522216796875
2020-12-01 18:30:08.6770,0.4829943478107453,-0.7987328767776489,1.9977515935897827,0.081573486328125,0.71441650390625,-0.0735931396484375
2020-12-01 18:30:08.7080,0.4760413765907288,-0.5603858232498169,1.5005674362182615,0.0949859619140625,0.8452911376953125,-0.0813140869140625
2020-12-01 18:30:08.7250,0.4760413765907288,-0.5603858232498169,1.5005674362182615,0.0728912353515625,0.8632049560546875,-0.07757568359375
2020-12-01 18:30:08.7420,0.452377587556839,-0.3704587519168854,1.2295931577682495,0.0479583740234375,0.8697967529296875,-0.076995849609375
2020-12-01 18:30:08.7590,0.3750705420970917,-0.11426372826099394,0.9022331833839417,0.0479583740234375,0.8697967529296875,-0.076995849609375
2020-12-01 18:30:08.7760,0.2938390672206879,0.09447190910577774,0.5151836872100829,0.0425567626953125,0.927093505859375,-0.0736236572265625
2020-12-01 18:30:08.8080,0.093930222094059,0.19371141493320465,-0.2858770191669464,0.091949462890625,1.045654296875,-0.1057586669921875
2020-12-01 18:30:08.8250,0.093930222094059,0.19371141493320465,-0.2858770191669464,0.1313323974609375,1.041290283203125,-0.099884033203125
2020-12-01 18:30:08.8420,-0.04741065949201584,0.2876104712486267,-0.5712661743164062,0.1213531494140625,1.1038970947265625,-0.1183319091796875
2020-12-01 18:30:08.8580,-0.19500038027763367,0.45207825303077703,-0.8945190310478209,0.1213531494140625,1.1038970947265625,-0.1183319091796875
2020-12-01 18:30:08.8770,-0.34471026062965393,0.5863601565361023,-1.2559998035430908,0.108856201171875,1.233154296875,-0.120819091796875
2020-12-01 18:30:08.9080,-0.6589733958244324,0.7517808079719543,-2.0659165382385254,0.1197509765625,1.4093780517578125,-0.162933349609375
2020-12-01 18:30:08.9250,-0.6589733958244324,0.7517808079719543,-2.0659165382385254,0.1252593994140625,1.4398651123046875,-0.2501983642578125
2020-12-01 18:30:08.9420,-0.7940523624420166,0.8053625226020813,-2.4856281280517583,0.1465606689453125,1.462127685546875,-0.3210601806640625
2020-12-01 18:30:08.9590,-0.7643783688545227,0.7538900375366211,-2.6836531162261963,0.1465606689453125,1.462127685546875,-0.3210601806640625
2020-12-01 18:30:08.9770,-0.6700121760368347,0.7808403968811035,-2.684638500213623,0.2032318115234375,1.428985595703125,-0.3534698486328125
2020-12-01 18:30:09.0080,-0.5846695899963379,1.005238056182861,-2.6227269172668457,0.28045654296875,1.1567230224609375,-0.3190765380859375
2020-12-01 18:30:09.0250,-0.5097433924674988,1.293952465057373,-2.568426609039306,0.30950927734375,1.020782470703125,-0.3078155517578125
2020-12-01 18:30:09.0420,-0.4495623707771301,1.2902703285217283,-2.4813928604125977,0.3610076904296875,0.83428955078125,-0.299560546875
2020-12-01 18:30:09.0580,-0.4185120463371277,0.7422704100608826,-2.274050712585449,0.3610076904296875,0.83428955078125,-0.299560546875
2020-12-01 18:30:09.0780,-0.36363521218299866,0.14243917167186734,-1.9622714519500728,0.438507080078125,0.6253662109375,-0.3217620849609375
2020-12-01 18:30:09.1080,-0.3413546681404114,-0.5494567155838013,-1.5367646217346191,0.432586669921875,0.462921142578125,-0.320892333984375
2020-12-01 18:30:09.1250,-0.3671756088733673,-0.8832581639289856,-1.3073269128799438,0.3183746337890625,0.6900634765625,-0.3268280029296875
2020-12-01 18:30:09.1420,-0.3368914723396301,-1.0793240070343018,-1.347813844680786,0.26153564453125,0.9131011962890624,-0.323699951171875
2020-12-01 18:30:09.1590,-0.24370907247066495,-1.1879628896713257,-1.4325199127197266,0.26153564453125,0.9131011962890624,-0.323699951171875
2020-12-01 18:30:09.1770,-0.1982869952917099,-1.3007466793060305,-1.4176554679870603,0.2484283447265625,0.9295806884765624,-0.32073974609375
2020-12-01 18:30:09.2080,-0.2731378078460693,-0.9455223083496094,-1.2472126483917236,0.2574920654296875,0.7135467529296875,-0.2889862060546875
2020-12-01 18:30:09.2250,-0.3742058277130127,-0.453980803489685,-1.049166917800903,0.2110137939453125,0.8376922607421875,-0.35595703125
2020-12-01 18:30:09.2420,-0.3238241374492645,-0.06982089579105377,-1.068473219871521,0.2110137939453125,0.8376922607421875,-0.35595703125
2020-12-01 18:30:09.2590,-0.22215662896633148,-0.0638761818408966,-1.0654665231704712,0.2171783447265625,0.9692535400390624,-0.41473388671875
2020-12-01 18:30:09.2770,-0.11375851929187775,0.10092634707689284,-0.9626347422599792,0.2250518798828125,0.995635986328125,-0.4122467041015625
2020-12-01 18:30:09.3080,-0.07605987787246704,0.3986067771911621,-0.8995926380157471,0.2360382080078125,1.118682861328125,-0.37689208984375
2020-12-01 18:30:09.3250,-0.0614822693169117,0.6382609009742737,-0.8136236667633057,0.2747802734375,1.2231903076171875,-0.3798980712890625
2020-12-01 18:30:09.3420,-0.001600559800863266,0.8177579641342163,-0.6890425682067871,0.2747802734375,1.2231903076171875,-0.3798980712890625
2020-12-01 18:30:09.3590,-0.05431996285915375,0.7388205528259277,-0.49843829870224,0.3193206787109375,1.1727447509765625,-0.3509063720703125
2020-12-01 18:30:09.3760,-0.21838293969631195,0.747402012348175,-0.3445054590702057,0.3123931884765625,1.0379638671875,-0.337554931640625
2020-12-01 18:30:09.3960,-0.25365036725997925,0.7348697185516357,-0.21430005133152008,0.2871856689453125,1.1251068115234375,-0.3667449951171875
2020-12-01 18:30:09.4260,-0.11353135854005815,0.7318883538246155,-0.14784325659275055,0.272216796875,1.5301666259765625,-0.4493255615234375
2020-12-01 18:30:09.4420,0.08512288331985474,0.3599081039428711,-0.1386183351278305,0.272216796875,1.5301666259765625,-0.4493255615234375
2020-12-01 18:30:09.4580,0.2032119780778885,-0.11056752502918243,0.12246759235858914,0.3778076171875,1.453643798828125,-0.453948974609375
2020-12-01 18:30:09.4770,0.26140791177749634,-0.27935442328453064,0.5457160472869873,0.4289398193359375,1.2069854736328125,-0.38751220703125
2020-12-01 18:30:09.5080,0.3481891453266144,-0.3981923758983612,0.9029908180236816,0.37713623046875,1.0078582763671875,-0.2711639404296875
2020-12-01 18:30:09.5250,0.3797920644283295,-0.6046134829521179,1.1011673212051392,0.383819580078125,0.9107666015625,-0.22650146484375
2020-12-01 18:30:09.5420,0.36994796991348267,-0.9283771514892578,1.2588938474655151,0.383819580078125,0.9107666015625,-0.22650146484375
2020-12-01 18:30:09.5590,0.3466700613498688,-1.2645364999771118,1.554430603981018,0.4169158935546875,0.8348541259765625,-0.220733642578125
2020-12-01 18:30:09.5770,0.34140685200691223,-1.4276362657546997,1.84909987449646,0.4179840087890625,0.809814453125,-0.2080230712890625
2020-12-01 18:30:09.6080,0.3928269147872925,-1.41154146194458,1.9834557771682741,0.2862091064453125,0.8199005126953125,-0.2035369873046875
2020-12-01 18:30:09.6250,0.4876799285411834,-1.2786706686019895,2.063332319259644,0.257904052734375,0.8025970458984375,-0.213409423828125
2020-12-01 18:30:09.6420,0.6507420539855957,-0.9304109811782836,2.0774197578430176,0.257904052734375,0.8025970458984375,-0.213409423828125
2020-12-01 18:30:09.6590,0.8803694248199463,-0.4979831576347351,2.1203291416168213,0.2676239013671875,0.818206787109375,-0.228912353515625
2020-12-01 18:30:09.6770,1.0734648704528809,-0.06580670922994614,2.375039577484131,0.32275390625,0.8436126708984375,-0.225128173828125
2020-12-01 18:30:09.7080,1.142364263534546,0.4229547083377838,2.5673975944519043,0.3152313232421875,0.9044189453125,-0.157989501953125
2020-12-01 18:30:09.7250,1.09408438205719,0.7536143660545349,2.5987937450408936,0.3152313232421875,0.9044189453125,-0.157989501953125
2020-12-01 18:30:09.7420,1.0328137874603271,0.7935740351676941,2.5517098903656006,0.310028076171875,0.9372711181640624,-0.1446990966796875
2020-12-01 18:30:09.7590,0.9350789785385132,0.5700373649597168,2.4321885108947754,0.3036346435546875,0.9797210693359376,-0.14306640625
2020-12-01 18:30:09.7770,0.7997773885726929,0.2291532903909683,2.2964847087860107,0.290496826171875,1.0252227783203125,-0.1561431884765625
2020-12-01 18:30:09.8080,0.6942927241325378,-0.011091799475252628,2.1920175552368164,0.237945556640625,1.2119903564453125,-0.2521820068359375
2020-12-01 18:30:09.8250,0.6317798495292664,-0.11487891525030135,2.0681812763214107,0.237945556640625,1.2119903564453125,-0.2521820068359375
2020-12-01 18:30:09.8420,0.5634796023368835,0.4379371404647827,1.839931964874268,0.16156005859375,1.211151123046875,-0.21978759765625
2020-12-01 18:30:09.8590,0.4927484393119812,1.2649871110916138,1.5676220655441284,0.0417633056640625,1.0596160888671875,-0.1655731201171875
2020-12-01 18:30:09.8770,0.4165332913398743,1.6418778896331787,1.1977205276489258,-0.014495849609375,1.0207366943359375,-0.17718505859375
2020-12-01 18:30:09.9080,0.3027217984199524,1.4773046970367432,0.7717483639717102,0.11688232421875,1.317474365234375,-0.2576751708984375
2020-12-01 18:30:09.9250,0.14997431635856628,0.8353052735328674,0.3625587522983551,0.11688232421875,1.317474365234375,-0.2576751708984375
2020-12-01 18:30:09.9420,-0.01925651915371418,0.4579023122787476,0.07110852748155594,0.132293701171875,1.2168121337890625,-0.2321929931640625
2020-12-01 18:30:09.9590,-0.21753764152526853,0.3928745687007904,-0.22993838787078855,0.1194000244140625,1.1688232421875,-0.199371337890625
2020-12-01 18:30:09.9770,-0.3264952898025513,0.44865527749061584,-0.7330217957496643,0.056365966796875,1.2376556396484375,-0.202545166015625
2020-12-01 18:30:10.0080,-0.4004592597484589,0.3031486868858337,-1.3650503158569336,0.077301025390625,1.226104736328125,-0.24700927734375
2020-12-01 18:30:10.0250,-0.5511236190795898,-0.02801219373941421,-1.586249589920044,0.077301025390625,1.226104736328125,-0.24700927734375
2020-12-01 18:30:10.0420,-0.7020348310470581,-0.19253909587860107,-1.5951218605041504,0.1016998291015625,1.021240234375,-0.22100830078125
2020-12-01 18:30:10.0590,-0.8509718179702759,-0.4842537641525269,-1.644318461418152,0.125762939453125,0.9158172607421876,-0.2260284423828125
2020-12-01 18:30:10.0780,-0.9218034148216248,-0.911629855632782,-1.6937265396118164,0.1760101318359375,0.85321044921875,-0.2887725830078125
2020-12-01 18:30:10.1080,-0.7798217535018921,-1.0959149599075315,-1.690786600112915,0.124969482421875,0.8385009765625,-0.3450469970703125
2020-12-01 18:30:10.1250,-0.4966989755630493,-1.1730489730834959,-1.7042087316513062,0.124969482421875,0.8385009765625,-0.3450469970703125
2020-12-01 18:30:10.1420,-0.2738091647624969,-0.8127917051315308,-1.791669249534607,0.081695556640625,0.847686767578125,-0.303375244140625
2020-12-01 18:30:10.1590,-0.16541479527950287,0.11002663522958757,-1.8920981884002688,0.0408782958984375,0.843505859375,-0.20599365234375
2020-12-01 18:30:10.1780,-0.1417725831270218,1.331602931022644,-2.0529258251190186,0.0198211669921875,0.839874267578125,-0.12738037109375
2020-12-01 18:30:10.2090,-0.16576340794563293,2.238614797592163,-2.148001909255981,0.2772216796875,0.96856689453125,-0.096954345703125
2020-12-01 18:30:10.2250,-0.17031101882457733,2.40094256401062,-2.120239496231079,0.2772216796875,0.96856689453125,-0.096954345703125
2020-12-01 18:30:10.2420,-0.2087385654449463,2.019463062286377,-2.052025556564331,0.3952484130859375,1.0189361572265625,-0.13165283203125
2020-12-01 18:30:10.2590,-0.3197348713874817,1.46537983417511,-2.0933051109313965,0.4444427490234375,0.9778289794921876,-0.1733551025390625
2020-12-01 18:30:10.2770,-0.3684405982494354,0.999702215194702,-2.193767786026001,0.4486846923828125,0.93505859375,-0.219207763671875
2020-12-01 18:30:10.3080,-0.2750526070594788,0.5236584544181824,-2.261528968811035,0.4449615478515625,0.9678192138671876,-0.2695159912109375
2020-12-01 18:30:10.3250,-0.2525254487991333,0.030113160610198975,-2.270505428314209,0.4395599365234375,0.9610137939453124,-0.25091552734375
2020-12-01 18:30:10.3420,-0.5441879630088806,-0.15324707329273224,-2.221909999847412,0.4708709716796875,0.9824371337890624,-0.1728515625
2020-12-01 18:30:10.3580,-0.8276239037513733,0.5382086038589478,-2.029167652130127,0.5060577392578125,1.130828857421875,-0.212127685546875
2020-12-01 18:30:10.3780,-0.3844544589519501,1.4358727931976318,-1.914745211601257,0.3851470947265625,1.2738494873046875,-0.3171234130859375
2020-12-01 18:30:10.4080,-0.0009022789890877905,1.812175154685974,-1.9410377740859983,0.25335693359375,1.214080810546875,-0.25946044921875
2020-12-01 18:30:10.4250,-0.08373084664344788,2.2945337295532227,-1.7425379753112793,0.385955810546875,0.99127197265625,-0.214630126953125
2020-12-01 18:30:10.4420,-0.233620747923851,2.506859540939331,-1.2090743780136108,0.53326416015625,0.8602294921875,-0.214111328125
2020-12-01 18:30:10.4590,-0.2347728312015533,2.085123062133789,-0.94486266374588,0.4481201171875,0.956268310546875,-0.235748291015625
2020-12-01 18:30:10.4770,-0.2347728312015533,2.085123062133789,-0.94486266374588,0.429229736328125,1.2176971435546875,-0.294158935546875
2020-12-01 18:30:10.5080,0.11273080855607985,-0.07048961520195007,-1.0423985719680786,0.504486083984375,1.5030059814453125,-0.395904541015625
2020-12-01 18:30:10.5250,0.31757262349128723,-0.9844545125961304,-0.6148674488067627,0.597442626953125,1.6144256591796875,-0.383209228515625
2020-12-01 18:30:10.5420,0.3150045573711395,-1.0253801345825195,0.12773984670639038,0.5960845947265625,1.383026123046875,-0.2679290771484375
2020-12-01 18:30:10.5590,0.1356060355901718,-0.3204792141914368,0.692925214767456,0.4844818115234375,1.15911865234375,-0.1387786865234375
2020-12-01 18:30:10.5780,0.1356060355901718,-0.3204792141914368,0.692925214767456,0.389617919921875,0.9758758544921876,-0.14007568359375
2020-12-01 18:30:10.6080,-0.138150155544281,0.029444707557559013,1.2356992959976196,0.3658599853515625,0.8345794677734375,-0.1534271240234375
2020-12-01 18:30:10.6250,-0.120602048933506,-0.22997328639030454,1.382152080535889,0.3629608154296875,0.761505126953125,-0.18341064453125
2020-12-01 18:30:10.6420,-0.008851282298564911,-0.565610408782959,1.4975141286849976,0.36737060546875,0.760223388671875,-0.19500732421875
2020-12-01 18:30:10.6590,0.10467075556516647,-0.9645575284957886,1.6135845184326172,0.3574981689453125,0.778045654296875,-0.186126708984375
2020-12-01 18:30:10.6780,0.10467075556516647,-0.9645575284957886,1.6135845184326172,0.3541412353515625,0.76226806640625,-0.1365509033203125
2020-12-01 18:30:10.7080,0.14571432769298553,-1.5996016263961792,1.7458072900772097,0.3495330810546875,0.7396697998046875,-0.0838470458984375
2020-12-01 18:30:10.7260,0.16442357003688812,-1.833343267440796,1.797569751739502,0.3415985107421875,0.7455902099609375,-0.0489654541015625
2020-12-01 18:30:10.7420,0.20231102406978607,-1.9533562660217283,1.859993815422058,0.3303375244140625,0.7918701171875,-0.0116119384765625
2020-12-01 18:30:10.7590,0.20231102406978607,-1.9533562660217283,1.859993815422058,0.3037109375,0.8310546875,0.00048828125
2020-12-01 18:30:10.7770,0.2657696306705475,-1.8917181491851809,1.9413809776306152,0.2641754150390625,0.8579254150390625,0.0206451416015625
2020-12-01 18:30:10.8080,0.17311719059944153,-1.120991826057434,1.8736014366149905,0.23974609375,0.903289794921875,0.002716064453125
2020-12-01 18:30:10.8250,0.3348674774169922,-0.5741043090820312,1.9031740427017207,0.2435302734375,0.98577880859375,-0.0677032470703125
2020-12-01 18:30:10.8420,0.5591924786567688,-0.3558345437049866,1.9177923202514648,0.2153472900390625,1.152801513671875,-0.074951171875
2020-12-01 18:30:10.8590,0.5591924786567688,-0.3558345437049866,1.9177923202514648,0.2180328369140625,1.288726806640625,-0.095977783203125
2020-12-01 18:30:10.8770,0.60370934009552,-0.3319435715675354,2.0013532638549805,0.2437591552734375,1.2730865478515625,-0.0949859619140625
2020-12-01 18:30:10.9080,0.34255149960517883,-0.2040807008743286,2.1613845825195312,0.2253570556640625,1.2381744384765625,-0.1345367431640625
2020-12-01 18:30:10.9250,0.2852778136730194,-0.07650090008974075,2.086327314376831,0.122650146484375,1.1893157958984375,-0.129425048828125
2020-12-01 18:30:10.9420,0.2826268970966339,0.03886723890900612,1.9169143438339236,0.01678466796875,1.106719970703125,-0.1598968505859375
2020-12-01 18:30:10.9590,0.2826268970966339,0.03886723890900612,1.9169143438339236,-0.0151519775390625,1.19476318359375,-0.2107086181640625
2020-12-01 18:30:10.9770,0.32542097568511963,0.009996174834668636,1.6539564132690432,-0.008636474609375,1.368896484375,-0.2355804443359375
2020-12-01 18:30:11.0080,0.4818305671215058,-0.11808349937200545,0.9824747443199158,-0.032928466796875,1.5120391845703125,-0.203216552734375
2020-12-01 18:30:11.0260,0.3525876104831696,0.016884973272681236,0.5144124627113342,-0.0799713134765625,1.634033203125,-0.1574249267578125
2020-12-01 18:30:11.0420,0.0653715506196022,0.4155005216598511,-0.026763970032334328,-0.116973876953125,1.61248779296875,-0.0893096923828125
2020-12-01 18:30:11.0590,0.0653715506196022,0.4155005216598511,-0.026763970032334328,-0.049896240234375,1.415069580078125,-0.0919952392578125
2020-12-01 18:30:11.0770,-0.2876957058906555,0.7235401272773743,-0.322439044713974,0.0839996337890625,1.235137939453125,-0.19512939453125
2020-12-01 18:30:11.1080,-0.4191570580005646,0.7899149060249329,-0.2780872881412506,0.156402587890625,1.0558929443359375,-0.2990875244140625
2020-12-01 18:30:11.1250,-0.2274206429719925,0.3141385018825531,-0.17936070263385773,0.1660003662109375,0.8832855224609375,-0.3631134033203125
2020-12-01 18:30:11.1420,-0.15398797392845154,-0.25525227189064026,-0.2218266725540161,0.167144775390625,0.7383880615234375,-0.3420257568359375
2020-12-01 18:30:11.1590,-0.15398797392845154,-0.25525227189064026,-0.2218266725540161,0.157928466796875,0.622772216796875,-0.3365478515625
2020-12-01 18:30:11.1760,-0.15845727920532227,-0.7253779768943787,-0.29749560356140137,0.125152587890625,0.5793914794921875,-0.3151092529296875
2020-12-01 18:30:11.2080,-0.015590677969157698,-0.4772877395153046,-0.2862948775291443,0.068572998046875,0.57275390625,-0.2578582763671875
2020-12-01 18:30:11.2250,0.026971695944666862,0.18687453866004944,-0.4389336705207825,-0.0197906494140625,0.5615997314453125,-0.1875762939453125
2020-12-01 18:30:11.2430,-0.03977963700890541,0.7998412847518921,-0.7314960360527039,-0.0527191162109375,0.5504608154296875,-0.13787841796875
2020-12-01 18:30:11.2590,-0.03977963700890541,0.7998412847518921,-0.7314960360527039,-0.00567626953125,0.58013916015625,-0.0993804931640625
2020-12-01 18:30:11.2770,-0.14815111458301544,1.1285775899887085,-0.971932888031006,0.0817108154296875,0.662994384765625,-0.123779296875
2020-12-01 18:30:11.3080,-0.17563015222549438,0.4292792081832886,-1.2021276950836182,0.15521240234375,0.760162353515625,-0.1710205078125
2020-12-01 18:30:11.3250,-0.16629789769649506,-0.1533200442790985,-1.1616252660751345,0.219085693359375,0.798004150390625,-0.20526123046875
2020-12-01 18:30:11.3420,-0.16629789769649506,-0.1533200442790985,-1.1616252660751345,0.2412109375,0.835113525390625,-0.1948699951171875
2020-12-01 18:30:11.3590,-0.23235148191452026,-0.5282196402549744,-1.1905241012573242,0.225006103515625,0.913726806640625,-0.1741485595703125
2020-12-01 18:30:11.3760,-0.3720196187496185,-0.7255052924156189,-1.312557578086853,0.213531494140625,1.0282135009765625,-0.18072509765625
2020-12-01 18:30:11.4080,-0.4885140359401703,-0.5948785543441772,-1.5475504398345947,0.2160491943359375,1.1986236572265625,-0.2295379638671875
2020-12-01 18:30:11.4250,-0.37426307797431946,-0.311311274766922,-1.606149196624756,0.2113037109375,1.3091278076171875,-0.2559967041015625
2020-12-01 18:30:11.4420,-0.37426307797431946,-0.311311274766922,-1.606149196624756,0.1950836181640625,1.19451904296875,-0.206939697265625
2020-12-01 18:30:11.4590,-0.300218403339386,0.325844407081604,-1.7061336040496826,0.1942901611328125,1.07501220703125,-0.14666748046875
2020-12-01 18:30:11.4760,-0.36428341269493103,1.0036932229995728,-1.754161357879639,0.1942901611328125,1.07501220703125,-0.14666748046875
2020-12-01 18:30:11.5080,-0.5408933162689209,1.9866234064102173,-1.9795223474502563,0.202117919921875,1.1360321044921875,-0.1239471435546875
2020-12-01 18:30:11.5250,-0.2804998457431793,1.9695922136306765,-2.2346150875091557,0.15631103515625,1.46734619140625,-0.1571502685546875
2020-12-01 18:30:11.5420,-0.2804998457431793,1.9695922136306765,-2.2346150875091557,0.13519287109375,1.7430877685546875,-0.164581298828125
2020-12-01 18:30:11.5590,0.01546710729598999,1.649757742881775,-2.598787784576416,0.2458648681640625,1.9372100830078125,-0.1472015380859375
2020-12-01 18:30:11.5780,0.09622932970523834,1.332056164741516,-3.0083117485046387,0.427276611328125,1.88031005859375,-0.13427734375
2020-12-01 18:30:11.6080,-0.17117947340011594,0.7088341116905212,-2.2592546939849854,0.557647705078125,1.60791015625,-0.078643798828125
2020-12-01 18:30:11.6260,-0.4178390502929688,0.4636270403862,-1.5331344604492188,0.60845947265625,1.3716278076171875,-0.092132568359375
2020-12-01 18:30:11.6420,-0.4178390502929688,0.4636270403862,-1.5331344604492188,0.628265380859375,1.15936279296875,-0.16693115234375
2020-12-01 18:30:11.6590,-0.4859475195407867,0.1209288164973259,-0.9583201408386229,0.5792083740234375,1.006561279296875,-0.2552337646484375
2020-12-01 18:30:11.6780,-0.34637659788131714,-0.4461923837661743,-0.6164067387580872,0.5792083740234375,1.006561279296875,-0.2552337646484375
2020-12-01 18:30:11.7080,-0.0919184684753418,-1.5692328214645386,-0.13270185887813568,0.485992431640625,0.6604156494140625,-0.1838531494140625
2020-12-01 18:30:11.7250,-0.05145014077425003,-1.7028238773345947,0.1811926960945129,0.451751708984375,0.4649810791015625,-0.1504058837890625
2020-12-01 18:30:11.7420,-0.05145014077425003,-1.7028238773345947,0.1811926960945129,0.4344940185546875,0.3812408447265625,-0.1410980224609375
2020-12-01 18:30:11.7590,-0.07035166025161743,-1.5020084381103516,0.4159191846847534,0.403839111328125,0.4133148193359375,-0.1464080810546875
2020-12-01 18:30:11.7760,-0.06134990975260735,-1.2877806425094604,0.5436912775039673,0.403839111328125,0.4133148193359375,-0.1464080810546875
2020-12-01 18:30:11.8080,0.157282292842865,-0.7403161525726318,0.8782937526702881,0.3786163330078125,0.4618682861328125,-0.1598358154296875
2020-12-01 18:30:11.8250,0.157282292842865,-0.7403161525726318,0.8782937526702881,0.3457183837890625,0.4737548828125,-0.150909423828125
2020-12-01 18:30:11.8420,0.26882055401802063,-0.4847767949104309,1.02990460395813,0.35247802734375,0.548919677734375,-0.131134033203125
2020-12-01 18:30:11.8590,0.29508116841316223,-0.35457006096839905,1.0866336822509766,0.4050750732421875,0.6755218505859375,-0.129150390625
2020-12-01 18:30:11.8780,0.2473085969686508,-0.3912511169910431,1.147668480873108,0.4050750732421875,0.6755218505859375,-0.129150390625
2020-12-01 18:30:11.9080,0.2411524355411529,-0.7065773606300354,1.5505520105361938,0.5080413818359375,0.9418792724609376,-0.1370697021484375
2020-12-01 18:30:11.9250,0.2411524355411529,-0.7065773606300354,1.5505520105361938,0.529571533203125,1.0552215576171875,-0.153778076171875
2020-12-01 18:30:11.9430,0.2672040164470673,-0.915228307247162,1.7667580842971802,0.5354766845703125,1.1761322021484375,-0.17279052734375
2020-12-01 18:30:11.9590,0.2833440899848938,-1.0328299999237058,1.9419325590133667,0.5234832763671875,1.30511474609375,-0.1859893798828125
2020-12-01 18:30:11.9760,0.29583483934402466,-1.1064105033874512,2.0828726291656494,0.5234832763671875,1.30511474609375,-0.1859893798828125
2020-12-01 18:30:12.0080,0.699131965637207,-1.1102564334869385,2.4465351104736333,0.451385498046875,1.54217529296875,-0.2728729248046875
2020-12-01 18:30:12.0250,0.699131965637207,-1.1102564334869385,2.4465351104736333,0.3939208984375,1.4055633544921875,-0.22979736328125
2020-12-01 18:30:12.0420,0.9132485389709472,-0.7061616778373718,2.627438545227051,0.3174591064453125,1.4869232177734375,-0.18988037109375
2020-12-01 18:30:12.0590,0.98589289188385,-0.3466415703296661,2.636526107788086,0.3174591064453125,1.4869232177734375,-0.18988037109375
2020-12-01 18:30:12.0760,0.934792459011078,-0.12526631355285645,2.5306522846221924,0.280426025390625,1.661224365234375,-0.1833648681640625
2020-12-01 18:30:12.1080,0.5594078898429871,0.05707766860723496,2.2329692840576167,0.2752532958984375,1.7077178955078125,-0.1507568359375
2020-12-01 18:30:12.1260,0.5594078898429871,0.05707766860723496,2.2329692840576167,0.2848663330078125,1.647125244140625,-0.1728515625
2020-12-01 18:30:12.1420,0.4037128388881683,0.02399321645498276,2.1873149871826167,0.281219482421875,1.5523529052734375,-0.182281494140625
2020-12-01 18:30:12.1590,0.3951987326145172,0.19616258144378665,2.168205738067627,0.281219482421875,1.5523529052734375,-0.182281494140625
2020-12-01 18:30:12.1770,0.38668832182884216,0.2955352365970612,1.9827172756195068,0.174407958984375,1.4362335205078125,-0.1616058349609375
2020-12-01 18:30:12.1960,0.3080454468727112,0.18361403048038485,1.755252480506897,0.1173248291015625,1.2681121826171875,-0.118194580078125
2020-12-01 18:30:12.2250,0.11540967971086502,-0.3009558320045471,1.5037901401519775,0.014251708984375,1.01617431640625,-0.0942840576171875
2020-12-01 18:30:12.2420,-0.024272317066788673,-0.6667916178703308,1.3521095514297483,-0.052978515625,0.9170074462890624,-0.0706634521484375
2020-12-01 18:30:12.2590,-0.07095007598400116,-0.9805926680564879,1.2652643918991089,-0.052978515625,0.9170074462890624,-0.0706634521484375
2020-12-01 18:30:12.2760,-0.1193985641002655,-1.2029151916503906,1.0939935445785522,-0.113525390625,0.78875732421875,-0.0816802978515625
2020-12-01 18:30:12.3080,-0.10186191648244858,-1.2077065706253052,0.8962333202362059,-0.2064208984375,0.446319580078125,-0.066497802734375
2020-12-01 18:30:12.3260,0.09570176154375076,-0.7965695858001709,0.7188212871551514,-0.2210845947265625,0.356658935546875,-0.0503692626953125
2020-12-01 18:30:12.3430,0.1931191235780716,-0.3011355996131897,0.5517646074295044,-0.1809539794921875,0.4263458251953125,-0.038543701171875
2020-12-01 18:30:12.3590,0.2019091546535492,0.2721428275108337,0.43272531032562256,-0.1809539794921875,0.4263458251953125,-0.038543701171875
2020-12-01 18:30:12.3760,0.1833370625972748,0.8177113533020021,0.3825878500938416,-0.123443603515625,0.5203094482421875,-0.0069732666015625
2020-12-01 18:30:12.4080,0.1399991810321808,1.1318950653076172,0.33794528245925903,-0.06396484375,0.5405426025390625,0.0257110595703125
2020-12-01 18:30:12.4260,-0.013518738560378551,1.2331348657608032,0.2257822602987289,-0.0652923583984375,0.600555419921875,-0.0198974609375
2020-12-01 18:30:12.4420,-0.15558479726314545,1.187858819961548,0.014213290996849537,-0.07208251953125,0.710418701171875,-0.0443115234375
2020-12-01 18:30:12.4590,-0.3175545334815979,0.7985469698905945,-0.5436571836471558,-0.07208251953125,0.710418701171875,-0.0443115234375
2020-12-01 18:30:12.4760,-0.6603749990463257,0.2155365496873856,-1.3065105676651,0.020904541015625,0.86279296875,-0.096099853515625
2020-12-01 18:30:12.5080,-0.9559578895568848,-0.3370097279548645,-1.8491597175598145,0.332855224609375,1.033538818359375,-0.2313690185546875
2020-12-01 18:30:12.5260,-1.0262813568115234,-0.4095238745212555,-2.0850210189819336,0.366973876953125,1.0978851318359375,-0.2909088134765625
2020-12-01 18:30:12.5420,-0.9649319648742676,0.2396027445793152,-2.095399618148804,0.366973876953125,1.0978851318359375,-0.2909088134765625
2020-12-01 18:30:12.5590,-0.6984810829162598,1.1454660892486572,-2.278526782989502,0.3507232666015625,1.2093048095703125,-0.33258056640625
2020-12-01 18:30:12.5770,-0.36226686835289,1.7092564105987549,-2.617189645767212,0.3373260498046875,1.3333282470703125,-0.3181304931640625
2020-12-01 18:30:12.6080,-0.10078439861536026,1.8996140956878664,-2.9617900848388667,0.4192962646484375,1.775909423828125,-0.1923675537109375
2020-12-01 18:30:12.6260,0.071877121925354,1.5798745155334473,-3.4933338165283203,0.409027099609375,2.079132080078125,-0.093780517578125
2020-12-01 18:30:12.6430,0.2454811334609985,1.3979272842407229,-3.871824741363525,0.409027099609375,2.079132080078125,-0.093780517578125
2020-12-01 18:30:12.6590,0.3149963021278381,1.0151599645614624,-4.0517120361328125,0.42401123046875,2.1675262451171875,0.0111236572265625
2020-12-01 18:30:12.6750,0.15279939770698547,0.7547898888587952,-4.121077537536621,0.509552001953125,1.9197235107421875,0.040313720703125
2020-12-01 18:30:12.7080,-0.23414671421051025,0.1488608568906784,-3.8860056400299072,0.6847686767578125,1.5446319580078125,0.0082244873046875
2020-12-01 18:30:12.7260,-0.4813863337039948,-0.3831226229667664,-3.1931631565093994,0.648590087890625,1.3365936279296875,-0.0347900390625
2020-12-01 18:30:12.7420,-0.4461625814437866,-0.8162199854850769,-2.454030990600586,0.648590087890625,1.3365936279296875,-0.0347900390625
2020-12-01 18:30:12.7590,-0.37534937262535095,-1.0722941160202026,-1.941312551498413,0.6044769287109375,1.09722900390625,-0.0805816650390625
2020-12-01 18:30:12.7760,-0.3430207371711731,-1.0533963441848757,-1.569774508476257,0.5870819091796875,0.919830322265625,-0.117523193359375
2020-12-01 18:30:12.7950,-0.3514600396156311,-0.9215083122253418,-1.179255127906799,0.5875091552734375,0.7524566650390625,-0.1352081298828125
2020-12-01 18:30:12.8260,-0.37846875190734863,-0.5662338733673096,-0.8311461806297302,0.43560791015625,0.5284271240234375,-0.10552978515625
2020-12-01 18:30:12.8420,-0.348187267780304,-0.03807894140481949,-0.5713609457015991,0.43560791015625,0.5284271240234375,-0.10552978515625
2020-12-01 18:30:12.8590,-0.2719894349575043,0.3833218216896057,-0.3857804536819458,0.410369873046875,0.417755126953125,-0.0938873291015625
2020-12-01 18:30:12.8760,-0.172783762216568,0.5390099287033081,-0.3215729594230652,0.4073486328125,0.353271484375,-0.1065826416015625
2020-12-01 18:30:12.9080,-0.13076333701610565,0.5247929096221924,-0.2542354762554169,0.479339599609375,0.4761505126953125,-0.161224365234375
2020-12-01 18:30:12.9260,-0.07441990822553635,0.6057139039039612,-0.0547785609960556,0.480804443359375,0.567718505859375,-0.149566650390625
2020-12-01 18:30:12.9420,0.012947224080562592,0.8143653869628906,0.19894345104694366,0.480804443359375,0.567718505859375,-0.149566650390625
2020-12-01 18:30:12.9590,0.0403016172349453,0.9678744673728944,0.3129650950431824,0.4417877197265625,0.6610870361328125,-0.1673431396484375
2020-12-01 18:30:12.9760,0.05919647961854935,0.8916034102439879,0.493510365486145,0.4791717529296875,0.7601470947265625,-0.1824188232421875
2020-12-01 18:30:13.0080,0.11042877286672592,0.5371758341789246,0.7655972838401794,0.6133880615234375,0.9388275146484376,-0.2603302001953125
2020-12-01 18:30:13.0260,0.19099152088165286,-0.026246784254908558,0.9702188968658448,0.62835693359375,1.028289794921875,-0.2939605712890625
2020-12-01 18:30:13.0430,0.2759658098220825,-0.732670247554779,1.1983476877212524,0.62835693359375,1.028289794921875,-0.2939605712890625
2020-12-01 18:30:13.0590,0.3349367082118988,-1.1509233713150024,1.5752118825912476,0.617401123046875,1.1601715087890625,-0.256072998046875
2020-12-01 18:30:13.0760,0.3926905691623688,-1.281307816505432,1.9512946605682373,0.5749969482421875,1.2931671142578125,-0.228424072265625
2020-12-01 18:30:13.1080,0.5232275128364563,-1.1995530128479004,2.2178871631622314,0.4315032958984375,1.509368896484375,-0.2430267333984375
2020-12-01 18:30:13.1260,0.6615124344825745,-0.9290650486946106,2.4818403720855717,0.4315032958984375,1.509368896484375,-0.2430267333984375
2020-12-01 18:30:13.1420,0.7742903828620911,-0.563674807548523,2.5997073650360107,0.3712158203125,1.4579925537109375,-0.185302734375
2020-12-01 18:30:13.1590,0.7951785922050476,-0.5042914152145386,2.6141276359558105,0.318328857421875,1.6119537353515625,-0.224212646484375
2020-12-01 18:30:13.1760,0.8718531727790833,-0.40459036827087397,2.650629997253418,0.2578125,1.7200164794921875,-0.2425079345703125
2020-12-01 18:30:13.2080,0.942784309387207,-0.2521917521953583,2.6332294940948486,0.1479949951171875,1.8204498291015625,-0.2007598876953125
2020-12-01 18:30:13.2260,0.9730335474014282,-0.10018519312143326,2.517756223678589,0.1479949951171875,1.8204498291015625,-0.2007598876953125
2020-12-01 18:30:13.2420,0.9377560019493104,-0.014321414753794668,2.48710298538208,0.1428985595703125,1.8157806396484373,-0.1836395263671875
2020-12-01 18:30:13.2590,0.842741847038269,-0.04452751949429512,2.5485646724700928,0.1405029296875,1.583587646484375,-0.143829345703125
2020-12-01 18:30:13.2760,0.5806775093078613,-0.1259153187274933,2.4579174518585205,0.108306884765625,1.303558349609375,-0.0860443115234375
2020-12-01 18:30:13.3080,0.3655199110507965,-0.22144663333892825,2.3529767990112305,0.0877685546875,1.33905029296875,-0.1512603759765625
2020-12-01 18:30:13.3260,0.4565694034099579,-0.2976689636707306,2.4206268787384038,0.0877685546875,1.33905029296875,-0.1512603759765625
2020-12-01 18:30:13.3430,0.7138653993606567,-0.26891428232192993,2.456160068511963,0.0117645263671875,1.1992645263671875,-0.13812255859375
2020-12-01 18:30:13.3590,0.7301516532897949,-0.2647661566734314,2.443199634552002,-0.01824951171875,0.967926025390625,-0.085113525390625
2020-12-01 18:30:13.3760,0.5202993750572205,-0.2336638867855072,2.389290809631348,-0.0345458984375,0.7588348388671875,-0.04742431640625
2020-12-01 18:30:13.4080,0.27138224244117737,-0.16730616986751554,2.1697053909301762,-0.143463134765625,0.5098419189453125,0.01080322265625
2020-12-01 18:30:13.4250,0.14041996002197266,-0.003355316584929824,1.805989146232605,-0.143463134765625,0.5098419189453125,0.01080322265625
2020-12-01 18:30:13.4420,0.0704917460680008,0.07312827557325363,1.5108458995819092,-0.10125732421875,0.4076995849609375,0.0066070556640625
2020-12-01 18:30:13.4590,-0.019968114793300632,0.21492695808410645,1.2059028148651123,-0.0422821044921875,0.3614959716796875,-0.0259246826171875
2020-12-01 18:30:13.4760,-0.019968114793300632,0.21492695808410645,1.2059028148651123,-0.008392333984375,0.393890380859375,-0.0800018310546875
2020-12-01 18:30:13.5080,-0.11597054451704025,0.04008696600794792,0.4628337025642395,-0.00946044921875,0.455169677734375,-0.11669921875
2020-12-01 18:30:13.5260,-0.13209785521030426,-0.15618987381458282,0.038418762385845184,0.020965576171875,0.5215606689453125,-0.1293182373046875
2020-12-01 18:30:13.5420,-0.26351046562194824,-0.2766995131969452,-0.40147313475608826,0.1086273193359375,0.6068267822265625,-0.1318817138671875
2020-12-01 18:30:13.5590,-0.4654984474182129,-0.1629820019006729,-0.6929017901420593,0.1910247802734375,0.662384033203125,-0.14068603515625
2020-12-01 18:30:13.5750,-0.4654984474182129,-0.1629820019006729,-0.6929017901420593,0.2137908935546875,0.6544036865234375,-0.1353607177734375
2020-12-01 18:30:13.6080,-0.6790815591812134,0.929709255695343,-1.1382797956466677,0.1603240966796875,0.687347412109375,-0.159210205078125
2020-12-01 18:30:13.6260,-0.6907792687416077,1.2831029891967771,-1.738733410835266,0.14678955078125,0.8235931396484375,-0.2060089111328125
2020-12-01 18:30:13.6420,-0.7031003832817078,1.1917134523391724,-2.3352572917938232,0.2119903564453125,0.988555908203125,-0.251983642578125
2020-12-01 18:30:13.6590,-0.5271205306053162,1.0597596168518066,-2.703441619873047,0.3235626220703125,1.1608734130859375,-0.297821044921875
2020-12-01 18:30:13.6760,-0.5271205306053162,1.0597596168518066,-2.703441619873047,0.457763671875,1.3011016845703125,-0.3533477783203125
2020-12-01 18:30:13.7080,-0.15928606688976288,0.9260056018829346,-2.607726812362671,0.4985809326171875,1.2984771728515625,-0.2971343994140625
2020-12-01 18:30:13.7260,0.06024869158864021,0.861562967300415,-3.0170605182647705,0.4072265625,1.4621429443359375,-0.2624969482421875
2020-12-01 18:30:13.7420,0.2242983430624008,0.7129703164100647,-3.632461309432984,0.3240814208984375,1.7999725341796875,-0.2506561279296875
2020-12-01 18:30:13.7590,0.17362424731254578,0.8994605541229248,-4.2085537910461435,0.3946990966796875,1.987823486328125,-0.1305694580078125
2020-12-01 18:30:13.7760,0.17362424731254578,0.8994605541229248,-4.2085537910461435,0.5275726318359375,1.8704071044921875,-0.072540283203125
2020-12-01 18:30:13.7950,0.08490237593650818,0.8743314743041992,-4.223897933959962,0.5911712646484375,1.6933135986328125,-0.0348052978515625
2020-12-01 18:30:13.8250,-0.019414177164435387,0.7966204285621643,-3.4784884452819824,0.6055755615234375,1.63134765625,-0.032958984375
2020-12-01 18:30:13.8430,-0.05579881742596626,0.5602510571479797,-3.023998737335205,0.620208740234375,1.4517059326171875,-0.0331573486328125
2020-12-01 18:30:13.8590,-0.15405482053756714,0.32201024889945984,-2.5729081630706787,0.639923095703125,1.2458038330078125,-0.0365753173828125
2020-12-01 18:30:13.8760,-0.15405482053756714,0.32201024889945984,-2.5729081630706787,0.60491943359375,1.0713043212890625,-0.067230224609375
2020-12-01 18:30:13.9080,-0.3249810039997101,-0.5953390002250671,-1.6253474950790403,0.555816650390625,0.89703369140625,-0.09088134765625
2020-12-01 18:30:13.9260,-0.4097947180271149,-0.8898177742958069,-1.1509734392166138,0.5391845703125,0.7353515625,-0.100494384765625
2020-12-01 18:30:13.9420,-0.3862960338592529,-0.9560458064079284,-0.8810394406318665,0.461578369140625,0.6170196533203125,-0.12408447265625
2020-12-01 18:30:13.9590,-0.2665051817893982,-0.9691700935363771,-0.8361555933952332,0.3566131591796875,0.53265380859375,-0.15496826171875
2020-12-01 18:30:13.9760,-0.2665051817893982,-0.9691700935363771,-0.8361555933952332,0.3080596923828125,0.4949188232421875,-0.160125732421875
2020-12-01 18:30:14.0080,-0.057290986180305474,-0.8349990248680115,-0.921713650226593,0.28643798828125,0.4710540771484375,-0.13543701171875
2020-12-01 18:30:14.0260,-0.06067027151584625,-0.6192765831947327,-0.9190475344657898,0.2894287109375,0.457550048828125,-0.1140899658203125
2020-12-01 18:30:14.0420,-0.09199037402868272,-0.294870525598526,-0.8963899016380309,0.3250579833984375,0.498504638671875,-0.1069488525390625
2020-12-01 18:30:14.0590,-0.09199037402868272,-0.294870525598526,-0.8963899016380309,0.360015869140625,0.6029510498046875,-0.1237030029296875
2020-12-01 18:30:14.0760,-0.054073356091976166,-0.05446244403719902,-0.8226850628852844,0.3917236328125,0.69525146484375,-0.13525390625
2020-12-01 18:30:14.1080,0.07333280146121979,0.02173672057688236,-0.6903185248374939,0.4378814697265625,0.778533935546875,-0.1790771484375
2020-12-01 18:30:14.1260,0.21066509187221527,0.07602392882108687,-0.4009074866771698,0.48992919921875,0.914306640625,-0.2266387939453125
2020-12-01 18:30:14.1420,0.4311423301696777,0.17883339524269104,0.04671024903655052,0.5390167236328125,1.105682373046875,-0.237640380859375
2020-12-01 18:30:14.1590,0.4311423301696777,0.17883339524269104,0.04671024903655052,0.5511322021484375,1.2468719482421875,-0.2303314208984375
2020-12-01 18:30:14.1760,0.6272457838058472,0.3250438570976257,0.5075255036354065,0.5410614013671875,1.2679901123046875,-0.210968017578125
2020-12-01 18:30:14.2090,0.6295081377029419,0.761438250541687,1.5356782674789429,0.5075531005859375,1.1895294189453125,-0.191741943359375
2020-12-01 18:30:14.2260,0.5645741820335388,0.7590983510017395,1.9751930236816408,0.471527099609375,1.2635955810546875,-0.1862640380859375
2020-12-01 18:30:14.2430,0.5508130788803101,0.4581387937068939,2.2364826202392583,0.4185943603515625,1.4637298583984375,-0.2196807861328125
2020-12-01 18:30:14.2590,0.5508130788803101,0.4581387937068939,2.2364826202392583,0.351531982421875,1.6523590087890625,-0.2449798583984375
2020-12-01 18:30:14.2760,0.5724954605102539,0.016012255102396008,2.431920051574707,0.2730560302734375,1.7553558349609375,-0.2794342041015625
2020-12-01 18:30:14.3090,0.3954170942306519,-0.5582166910171509,2.9437429904937744,0.2547454833984375,1.7913818359375,-0.285736083984375
2020-12-01 18:30:14.3260,0.2683219909667969,-0.7058689594268799,3.2038278579711914,0.2368316650390625,1.7077178955078125,-0.269622802734375
2020-12-01 18:30:14.3430,0.18380364775657654,-0.764651894569397,3.405790090560913,0.191986083984375,1.5140380859375,-0.229522705078125
2020-12-01 18:30:14.3590,0.18380364775657654,-0.764651894569397,3.405790090560913,0.10821533203125,1.3329925537109375,-0.1943511962890625
2020-12-01 18:30:14.3760,0.14050598442554474,-0.7469629049301147,3.4324615001678467,0.044891357421875,1.256805419921875,-0.2351837158203125
2020-12-01 18:30:14.4090,0.25759851932525635,-0.9332472681999208,3.2042238712310787,0.0725860595703125,1.1407623291015625,-0.2762451171875
2020-12-01 18:30:14.4260,0.4684761166572571,-0.8960722088813782,3.224802732467652,0.14581298828125,1.0765380859375,-0.2971343994140625
2020-12-01 18:30:14.4430,0.6574364900588989,-0.8217492699623108,3.2312946319580083,0.1324920654296875,1.004425048828125,-0.2693634033203125
2020-12-01 18:30:14.4590,0.6574364900588989,-0.8217492699623108,3.2312946319580083,0.076690673828125,0.88775634765625,-0.189300537109375
2020-12-01 18:30:14.4760,0.7409968972206116,-0.48917156457901,3.2004354000091557,0.0302581787109375,0.7925872802734375,-0.1214599609375
2020-12-01 18:30:14.5090,0.5589868426322937,-0.09248865395784378,2.759772062301636,0.017791748046875,0.7550506591796875,-0.09552001953125
2020-12-01 18:30:14.5260,0.4297678768634796,-0.2360104024410248,2.41278076171875,0.027313232421875,0.7781219482421875,-0.1243438720703125
2020-12-01 18:30:14.5430,0.395699143409729,-0.2194031924009323,2.192715883255005,0.0894927978515625,0.7885894775390625,-0.184600830078125
2020-12-01 18:30:14.5590,0.395699143409729,-0.2194031924009323,2.192715883255005,0.1151275634765625,0.7767791748046875,-0.210601806640625
2020-12-01 18:30:14.5760,0.4344987273216248,-0.11864382773637773,1.9997799396514893,0.0977630615234375,0.75616455078125,-0.1662139892578125
2020-12-01 18:30:14.6080,0.3530997335910797,0.5252128839492798,1.5445796251296997,0.0912628173828125,0.728118896484375,-0.159698486328125
2020-12-01 18:30:14.6260,0.10436928272247313,0.8292838335037231,1.1974914073944092,0.1350860595703125,0.7183990478515625,-0.14324951171875
2020-12-01 18:30:14.6420,0.10436928272247313,0.8292838335037231,1.1974914073944092,0.17181396484375,0.7273406982421875,-0.14697265625
2020-12-01 18:30:14.6590,-0.14848054945468905,0.863142192363739,0.7420315146446228,0.18603515625,0.7443695068359375,-0.176971435546875
2020-12-01 18:30:14.6760,-0.30950725078582764,0.5929344296455383,0.2225523740053177,0.2182159423828125,0.742431640625,-0.22442626953125
2020-12-01 18:30:14.7090,-0.3820437788963318,0.13177508115768433,-0.4836127460002899,0.2526092529296875,0.70025634765625,-0.2500152587890625
2020-12-01 18:30:14.7260,-0.3748167455196381,0.21754270792007446,-0.6728260517120361,0.2906646728515625,0.680572509765625,-0.2397918701171875
2020-12-01 18:30:14.7420,-0.3748167455196381,0.21754270792007446,-0.6728260517120361,0.3789215087890625,0.7364959716796875,-0.237579345703125
2020-12-01 18:30:14.7590,-0.44931176304817205,0.308622270822525,-0.807174801826477,0.419097900390625,0.8912506103515625,-0.243804931640625
2020-12-01 18:30:14.7760,-0.4635735154151917,0.3441086411476135,-1.0109138488769531,0.419097900390625,0.8912506103515625,-0.243804931640625
2020-12-01 18:30:14.8080,-0.4152898788452149,-0.21469472348690036,-2.3765828609466557,0.309326171875,1.2886962890625,-0.263671875
2020-12-01 18:30:14.8250,-0.4160030782222748,-0.2779461443424225,-3.110583782196045,0.3199310302734375,1.3417205810546875,-0.22259521484375
2020-12-01 18:30:14.8420,-0.4160030782222748,-0.2779461443424225,-3.110583782196045,0.3993988037109375,1.35955810546875,-0.1866302490234375
2020-12-01 18:30:14.8590,-0.490523636341095,-0.042499788105487823,-3.538836479187012,0.4619903564453125,1.3611907958984375,-0.1630096435546875
2020-12-01 18:30:14.8760,-0.5147959589958191,0.4347911477088928,-3.6845674514770512,0.4619903564453125,1.3611907958984375,-0.1630096435546875
2020-12-01 18:30:14.9090,-0.2839731276035309,0.9008392691612244,-3.8140478134155273,0.480804443359375,1.4673919677734375,-0.1354522705078125
2020-12-01 18:30:14.9260,-0.15014396607875824,0.8859977126121521,-3.7113215923309326,0.5340728759765625,1.365142822265625,-0.1193695068359375
2020-12-01 18:30:14.9420,-0.15014396607875824,0.8859977126121521,-3.7113215923309326,0.56134033203125,1.2045135498046875,-0.114227294921875
2020-12-01 18:30:14.9590,-0.13099822402000427,0.7468036413192749,-3.4309747219085693,0.568267822265625,1.0271148681640625,-0.0766448974609375
2020-12-01 18:30:14.9760,-0.18342362344264984,0.7317208051681519,-2.994572639465332,0.568267822265625,1.0271148681640625,-0.0766448974609375
2020-12-01 18:30:15.0080,-0.38753387331962585,0.5669071078300476,-2.2741174697875977,0.516693115234375,0.8080596923828125,-0.055145263671875
2020-12-01 18:30:15.0260,-0.40268248319625854,0.3487502634525299,-2.005706548690796,0.4838409423828125,0.7669830322265625,-0.08013916015625
2020-12-01 18:30:15.0420,-0.40268248319625854,0.3487502634525299,-2.005706548690796,0.4538116455078125,0.72509765625,-0.112640380859375
2020-12-01 18:30:15.0590,-0.3607696294784546,0.199699267745018,-1.8168561458587649,0.4175262451171875,0.7028961181640625,-0.1271209716796875
2020-12-01 18:30:15.0760,-0.2773418724536896,0.0984991416335106,-1.7051943540573118,0.4175262451171875,0.7028961181640625,-0.1271209716796875
2020-12-01 18:30:15.1080,-0.03664722666144371,0.3887466788291931,-1.5720556974411009,0.30767822265625,0.80413818359375,-0.1294403076171875
2020-12-01 18:30:15.1260,-0.03664722666144371,0.3887466788291931,-1.5720556974411009,0.2825469970703125,0.901092529296875,-0.1206207275390625
2020-12-01 18:30:15.1420,0.04506121948361397,0.7715928554534912,-1.5950582027435305,0.270904541015625,0.982208251953125,-0.0919647216796875
2020-12-01 18:30:15.1590,0.07033168524503708,1.1715338230133057,-1.6149139404296875,0.28790283203125,1.0606842041015625,-0.0882110595703125
2020-12-01 18:30:15.1760,0.10881809145212172,1.5708307027816772,-1.5850807428359983,0.28790283203125,1.0606842041015625,-0.0882110595703125
2020-12-01 18:30:15.2090,0.3101365566253662,1.824001669883728,-1.3430664539337158,0.3006439208984375,1.1994476318359375,-0.0766754150390625
2020-12-01 18:30:15.2260,0.3101365566253662,1.824001669883728,-1.3430664539337158,0.2760467529296875,1.2283477783203125,-0.076263427734375
2020-12-01 18:30:15.2430,0.23001828789711,1.5555355548858645,-1.355580449104309,0.29034423828125,1.1859130859375,-0.100799560546875
2020-12-01 18:30:15.2590,0.05867689475417138,1.1491103172302246,-1.236329436302185,0.29034423828125,1.1859130859375,-0.100799560546875
2020-12-01 18:30:15.2760,-0.03727413341403008,0.7657517790794373,-0.9476070404052734,0.3279876708984375,1.1088104248046875,-0.131500244140625
2020-12-01 18:30:15.3090,0.2143032401800156,0.12172084301710127,-0.4642300009727478,0.2623291015625,1.207550048828125,-0.151458740234375
2020-12-01 18:30:15.3260,0.2143032401800156,0.12172084301710127,-0.4642300009727478,0.2480010986328125,1.1967926025390625,-0.1135101318359375
2020-12-01 18:30:15.3420,0.0921616181731224,0.00600596098229289,-0.2987337112426758,0.3053436279296875,1.1304931640625,-0.10186767578125
2020-12-01 18:30:15.3590,-0.21639035642147064,0.17295527458190918,0.070197194814682,0.3053436279296875,1.1304931640625,-0.10186767578125
2020-12-01 18:30:15.3760,-0.4209653437137604,0.2814788222312927,0.5597354769706726,0.37762451171875,1.1284942626953125,-0.145172119140625
2020-12-01 18:30:15.3950,-0.5022231936454773,-0.07546679675579071,0.927319586277008,0.415069580078125,1.1192169189453125,-0.2274627685546875
2020-12-01 18:30:15.4260,-0.36222586035728455,-0.7955562472343445,1.211113214492798,0.5110931396484375,0.979034423828125,-0.2501220703125
2020-12-01 18:30:15.4420,-0.2538282871246338,-1.74323308467865,1.507534742355347,0.53802490234375,0.9425811767578124,-0.2111663818359375
2020-12-01 18:30:15.4590,-0.18434880673885345,-2.4961259365081787,1.8829073905944824,0.53802490234375,0.9425811767578124,-0.2111663818359375
2020-12-01 18:30:15.4780,-0.1188659369945526,-2.899899244308472,2.305385112762451,0.51715087890625,0.9629058837890624,-0.182403564453125
2020-12-01 18:30:15.5090,0.1869885325431824,-1.794642210006714,2.989427328109741,0.3470001220703125,0.903045654296875,-0.12945556640625
2020-12-01 18:30:15.5260,0.1869885325431824,-1.794642210006714,2.989427328109741,0.25311279296875,0.863128662109375,-0.131134033203125
2020-12-01 18:30:15.5430,0.35589444637298584,-1.0669680833816528,3.1470038890838623,0.2472076416015625,0.8521270751953125,-0.136505126953125
2020-12-01 18:30:15.5590,0.35371145606040955,-0.6531567573547363,3.2911102771759038,0.2472076416015625,0.8521270751953125,-0.136505126953125
2020-12-01 18:30:15.5760,0.3155209422111511,-0.33902013301849365,3.401241540908813,0.3128814697265625,0.8652801513671875,-0.188201904296875
2020-12-01 18:30:15.6080,0.3163710236549377,-0.4636406302452088,3.438471555709839,0.42828369140625,1.0830230712890625,-0.220306396484375
2020-12-01 18:30:15.6260,0.3653566837310791,-0.7782792448997498,3.4586260318756104,0.42291259765625,1.200927734375,-0.2280731201171875
2020-12-01 18:30:15.6420,0.4419766068458557,-1.0262219905853271,3.474615812301636,0.3569183349609375,1.269378662109375,-0.2100677490234375
2020-12-01 18:30:15.6590,0.5662354230880737,-0.9886167645454408,3.4264953136444087,0.3569183349609375,1.269378662109375,-0.2100677490234375
2020-12-01 18:30:15.6760,0.6243272423744202,-0.7386671304702759,3.2253103256225586,0.3018035888671875,1.2439727783203125,-0.158294677734375
2020-12-01 18:30:15.7090,0.565838634967804,-0.539606511592865,2.9233193397521973,0.2628021240234375,1.1640777587890625,-0.1192169189453125
2020-12-01 18:30:15.7260,0.4166611433029175,-0.3343018293380737,2.674320697784424,0.2427825927734375,1.1295318603515625,-0.1229705810546875
2020-12-01 18:30:15.7420,0.2326846420764923,-0.056300025433301926,2.3878819942474365,0.2472991943359375,1.1531829833984375,-0.1798553466796875
2020-12-01 18:30:15.7590,0.1640360802412033,0.07229097187519072,2.0754520893096924,0.2472991943359375,1.1531829833984375,-0.1798553466796875
2020-12-01 18:30:15.7760,0.23463647067546844,0.028438033536076542,1.8376847505569456,0.2741241455078125,1.1754608154296875,-0.2371978759765625
2020-12-01 18:30:15.8090,0.3266172707080841,0.03272252529859543,1.6905575990676882,0.233123779296875,0.9687347412109376,-0.223419189453125
2020-12-01 18:30:15.8260,0.3718803524971008,0.15717816352844238,1.5339781045913696,0.1689300537109375,1.0430450439453125,-0.1491241455078125
2020-12-01 18:30:15.8430,0.3668365776538849,0.1831756830215454,1.0964103937149048,0.1062469482421875,1.2868194580078125,-0.120208740234375
2020-12-01 18:30:15.8590,0.2308928668498993,-0.01827807351946831,0.2786044776439667,0.1062469482421875,1.2868194580078125,-0.120208740234375
2020-12-01 18:30:15.8760,0.018838135525584217,-0.19346293807029724,-0.6313649415969849,0.07415771484375,1.4058074951171875,-0.0929412841796875
2020-12-01 18:30:15.9090,-0.17532867193222046,-0.07005099207162857,-1.2557363510131836,0.121368408203125,1.053131103515625,-0.0152740478515625
2020-12-01 18:30:15.9250,-0.37794384360313416,0.2764582335948944,-1.6092123985290527,0.13336181640625,1.012054443359375,-0.013427734375
2020-12-01 18:30:15.9420,-0.5133274793624878,0.6659471392631531,-1.972734451293945,0.13336181640625,1.012054443359375,-0.013427734375
2020-12-01 18:30:15.9590,-0.4758565425872803,0.6605228185653687,-2.3480167388916016,0.1491546630859375,1.1239013671875,-0.0788726806640625
2020-12-01 18:30:15.9750,-0.31156933307647705,0.4002672433853149,-2.5702357292175293,0.1707611083984375,1.1742095947265625,-0.1224212646484375
2020-12-01 18:30:16.0090,-0.22400860488414764,0.12400104105472565,-2.6542341709136963,0.2610931396484375,0.9616241455078124,-0.09527587890625
2020-12-01 18:30:16.0250,-0.2804332673549652,0.04224812239408493,-2.6148810386657715,0.2552337646484375,0.8614349365234375,-0.05792236328125
2020-12-01 18:30:16.0420,-0.39356592297554016,0.1783638745546341,-2.537239789962769,0.2552337646484375,0.8614349365234375,-0.05792236328125
2020-12-01 18:30:16.0590,-0.5122321248054504,0.35154232382774353,-2.5231029987335205,0.22344970703125,0.81036376953125,-0.044342041015625
2020-12-01 18:30:16.0760,-0.58766108751297,0.5107431411743164,-2.540684461593628,0.2163543701171875,0.7942047119140625,-0.060699462890625
2020-12-01 18:30:16.1080,-0.5556126236915588,0.5856618881225586,-2.575831413269043,0.2617645263671875,0.8136749267578125,-0.12738037109375
2020-12-01 18:30:16.1260,-0.4854793548583984,0.5130825042724609,-2.585159540176392,0.270355224609375,0.7835693359375,-0.133575439453125
2020-12-01 18:30:16.1420,-0.3826187551021576,0.376088947057724,-2.544076681137085,0.270355224609375,0.7835693359375,-0.133575439453125
2020-12-01 18:30:16.1590,-0.2914568781852722,0.2886930406093597,-2.433825254440308,0.291595458984375,0.7537994384765625,-0.12799072265625
2020-12-01 18:30:16.1750,-0.1898903101682663,0.3263634741306305,-2.2907755374908447,0.298065185546875,0.785614013671875,-0.1122589111328125
2020-12-01 18:30:16.2080,-0.10472454875707626,0.4901356101036072,-2.2471418380737305,0.2554168701171875,0.98858642578125,-0.066558837890625
2020-12-01 18:30:16.2250,-0.1096750944852829,0.6835911273956299,-2.3229315280914307,0.278900146484375,1.13482666015625,-0.0855255126953125
2020-12-01 18:30:16.2420,-0.06940330564975739,0.935690462589264,-2.3768784999847408,0.278900146484375,1.13482666015625,-0.0855255126953125
2020-12-01 18:30:16.2590,0.110244482755661,1.0241776704788208,-2.3988113403320312,0.296844482421875,1.348541259765625,-0.1099395751953125
2020-12-01 18:30:16.2760,0.1570519357919693,0.8511584997177124,-2.402398109436035,0.3207244873046875,1.53973388671875,-0.10455322265625
2020-12-01 18:30:16.3080,0.0015475628897547722,0.8542163968086243,-2.297053813934326,0.4425201416015625,1.374359130859375,-0.12396240234375
2020-12-01 18:30:16.3260,-0.14066150784492493,0.8027430772781372,-2.0129857063293457,0.44219970703125,1.34930419921875,-0.1916046142578125
2020-12-01 18:30:16.3420,0.01959793642163277,0.8178660869598389,-1.7039799690246582,0.44219970703125,1.34930419921875,-0.1916046142578125
2020-12-01 18:30:16.3590,0.3043053150177002,0.6073378920555115,-1.5163536071777344,0.3854217529296875,1.400634765625,-0.2066192626953125
2020-12-01 18:30:16.3750,0.4059813320636749,0.6072949767112732,-1.4750328063964844,0.3275146484375,1.370269775390625,-0.166412353515625
2020-12-01 18:30:16.4080,0.22037898004055026,0.653622567653656,-1.4660384654998782,0.3910980224609375,1.2860565185546875,-0.097869873046875
2020-12-01 18:30:16.4260,-0.10117482393980026,0.901544749736786,-1.1336877346038818,0.3910980224609375,1.2860565185546875,-0.097869873046875
2020-12-01 18:30:16.4420,-0.3330429494380951,1.0268049240112305,-0.4944701790809631,0.5050048828125,1.1937103271484375,-0.14849853515625
2020-12-01 18:30:16.4590,-0.36861106753349293,0.7560170888900757,0.2188098430633545,0.5816497802734375,1.1179656982421875,-0.2393341064453125
2020-12-01 18:30:16.4770,-0.25098854303359985,0.08878552913665771,0.7856687307357788,0.61309814453125,0.9915008544921876,-0.262786865234375
2020-12-01 18:30:16.5080,-0.1794099658727646,-0.932688534259796,1.111119270324707,0.59149169921875,0.676971435546875,-0.1850433349609375
2020-12-01 18:30:16.5250,-0.2285383641719818,-1.9517061710357664,1.400881290435791,0.59149169921875,0.676971435546875,-0.1850433349609375
2020-12-01 18:30:16.5420,-0.20216241478919986,-2.3990418910980225,1.8751524686813357,0.6123809814453125,0.61993408203125,-0.1768646240234375
2020-12-01 18:30:16.5590,0.0029116340447217226,-2.478912115097046,2.3109664916992188,0.5150604248046875,0.6282958984375,-0.1878204345703125
2020-12-01 18:30:16.5750,0.3402712941169739,-2.1449475288391118,2.5273196697235107,0.386749267578125,0.6461334228515625,-0.19317626953125
2020-12-01 18:30:16.6080,0.627105712890625,-1.557484745979309,2.6415810585021973,0.3228759765625,0.74334716796875,-0.1692047119140625
2020-12-01 18:30:16.6250,0.6808972954750061,-0.9358020424842834,2.8133785724639893,0.3228759765625,0.74334716796875,-0.1692047119140625
2020-12-01 18:30:16.6420,0.5424606204032898,-0.5469573736190796,3.0503628253936768,0.3650665283203125,0.8011932373046875,-0.17266845703125
2020-12-01 18:30:16.6590,0.3873218894004822,-0.3992810845375061,3.215518951416016,0.390625,0.8542022705078125,-0.17352294921875
2020-12-01 18:30:16.6760,0.2886331379413605,-0.4856537878513336,3.2850334644317627,0.411529541015625,0.98114013671875,-0.1912384033203125
2020-12-01 18:30:16.7080,0.3127573728561401,-0.6366382241249084,3.2683145999908447,0.4253082275390625,1.1745758056640625,-0.2290191650390625
2020-12-01 18:30:16.7250,0.400665670633316,-0.5781837105751038,3.347548723220825,0.455810546875,1.436981201171875,-0.3205718994140625
2020-12-01 18:30:16.7420,0.6467372179031372,-0.15799176692962644,3.4506824016571045,0.4660797119140625,1.350799560546875,-0.3091583251953125
2020-12-01 18:30:16.7590,0.7591559290885925,0.004291151650249958,3.3700067996978764,0.4581298828125,1.295501708984375,-0.2665863037109375
2020-12-01 18:30:16.7750,0.7591559290885925,0.004291151650249958,3.3700067996978764,0.4578399658203125,1.36962890625,-0.243255615234375
2020-12-01 18:30:16.8080,0.5713258385658264,0.1311388462781906,3.215053081512451,0.448272705078125,1.3889312744140625,-0.192718505859375
2020-12-01 18:30:16.8260,0.37593820691108704,-0.05340996012091637,2.9347960948944087,0.420318603515625,1.3665924072265625,-0.1773529052734375
2020-12-01 18:30:16.8420,0.2878935635089874,-0.059895291924476624,2.6754322052001958,0.402862548828125,1.3388824462890625,-0.188385009765625
2020-12-01 18:30:16.8590,0.2670620679855347,0.00657481187954545,2.4925549030303955,0.362548828125,1.2582244873046875,-0.189727783203125
2020-12-01 18:30:16.8750,0.2670620679855347,0.00657481187954545,2.4925549030303955,0.3166656494140625,1.1077880859375,-0.185302734375
2020-12-01 18:30:16.9080,0.1821751296520233,0.11289699375629425,1.9481678009033203,0.2419586181640625,1.0373992919921875,-0.169830322265625
2020-12-01 18:30:16.9250,0.15607109665870667,0.10794217884540558,1.322718858718872,0.1749267578125,1.1009063720703125,-0.1455078125
2020-12-01 18:30:16.9420,0.08038831502199173,-0.04978992789983749,0.5289796590805054,0.161529541015625,1.1862030029296875,-0.1281280517578125
2020-12-01 18:30:16.9590,-0.04295332729816437,-0.1206073760986328,-0.14933542907238007,0.17352294921875,1.15325927734375,-0.099853515625
2020-12-01 18:30:16.9760,-0.04295332729816437,-0.1206073760986328,-0.14933542907238007,0.2049407958984375,1.0464935302734375,-0.067657470703125
2020-12-01 18:30:17.0080,-0.2460182905197144,0.05933709442615509,-1.0225342512130735,0.230224609375,0.9885406494140624,-0.0530853271484375
2020-12-01 18:30:17.0260,-0.2511747181415558,0.005908222869038582,-1.4175924062728882,0.2340087890625,1.0258941650390625,-0.0644378662109375
2020-12-01 18:30:17.0420,-0.18857231736183167,-0.12289503216743468,-1.7796286344528198,0.2487945556640625,1.04180908203125,-0.0658111572265625
2020-12-01 18:30:17.0590,-0.2385326772928238,-0.3938993513584137,-1.988529682159424,0.286834716796875,0.9712677001953124,-0.05999755859375
2020-12-01 18:30:17.0750,-0.2385326772928238,-0.3938993513584137,-1.988529682159424,0.310699462890625,0.8517913818359375,-0.0413360595703125
2020-12-01 18:30:17.1090,-0.4925037026405335,-0.2350985258817673,-1.726756930351257,0.30572509765625,0.7399749755859375,-0.019744873046875
2020-12-01 18:30:17.1260,-0.5879106521606445,-0.0067947893403470525,-1.5456174612045288,0.27484130859375,0.647552490234375,-0.0214996337890625
2020-12-01 18:30:17.1420,-0.632109522819519,0.14731355011463165,-1.4960571527481081,0.2329864501953125,0.57257080078125,-0.037628173828125
2020-12-01 18:30:17.1590,-0.6380696892738342,0.12243829667568208,-1.5825648307800293,0.195159912109375,0.52410888671875,-0.06549072265625
2020-12-01 18:30:17.1770,-0.6380696892738342,0.12243829667568208,-1.5825648307800293,0.20538330078125,0.5160064697265625,-0.0986480712890625
2020-12-01 18:30:17.2080,-0.6486296653747559,-0.300699919462204,-1.5499988794326782,0.2235870361328125,0.5109405517578125,-0.1156768798828125
2020-12-01 18:30:17.2260,-0.5852704048156738,-0.3720052540302277,-1.4848092794418335,0.2205810546875,0.508056640625,-0.1105499267578125
2020-12-01 18:30:17.2420,-0.5401723980903625,-0.3211050629615784,-1.5310683250427246,0.1881256103515625,0.552093505859375,-0.0950469970703125
2020-12-01 18:30:17.2590,-0.5033001303672789,-0.1268671303987503,-1.6278265714645386,0.169403076171875,0.66802978515625,-0.0888824462890625
2020-12-01 18:30:17.2750,-0.5033001303672789,-0.1268671303987503,-1.6278265714645386,0.1781768798828125,0.82769775390625,-0.0927276611328125
2020-12-01 18:30:17.3080,-0.3675796091556549,0.4574027061462402,-1.9289819002151491,0.1784210205078125,1.023162841796875,-0.0969696044921875
2020-12-01 18:30:17.3250,-0.29825061559677124,0.7031405568122864,-2.1641302108764653,0.177001953125,1.225433349609375,-0.111114501953125
2020-12-01 18:30:17.3420,-0.15215757489204407,1.1872191429138184,-2.364959955215454,0.189117431640625,1.4925689697265625,-0.119476318359375
2020-12-01 18:30:17.3590,-0.15215757489204407,1.1872191429138184,-2.364959955215454,0.1923065185546875,1.733184814453125,-0.118438720703125
2020-12-01 18:30:17.3760,0.010400443337857723,1.8409711122512815,-2.457000970840454,0.218902587890625,1.5685272216796875,-0.056304931640625
2020-12-01 18:30:17.4090,0.026151975616812703,2.525651216506958,-2.737510681152344,0.2896575927734375,1.4434967041015625,-0.0565643310546875
2020-12-01 18:30:17.4250,0.1633063703775406,2.370744228363037,-2.743760585784912,0.33892822265625,1.6308441162109375,-0.086456298828125
2020-12-01 18:30:17.4430,0.35072287917137146,2.1549084186553955,-2.67566442489624,0.36212158203125,1.7322998046875,-0.0607757568359375
2020-12-01 18:30:17.4590,0.35072287917137146,2.1549084186553955,-2.67566442489624,0.3686981201171875,1.814910888671875,-0.0177459716796875
2020-12-01 18:30:17.4760,0.3776740431785584,1.8257907629013064,-2.690718650817871,0.421844482421875,1.79241943359375,0.0091400146484375
2020-12-01 18:30:17.5080,-0.3704302608966827,1.10065495967865,-2.2965590953826904,0.559051513671875,1.5388641357421875,-0.0430450439453125
2020-12-01 18:30:17.5260,-0.6454660892486572,0.6521032452583313,-1.6133397817611694,0.6776123046875,1.376678466796875,-0.114471435546875
2020-12-01 18:30:17.5420,-0.5407609939575195,0.08079471439123154,-0.7629506587982178,0.680908203125,1.2061614990234375,-0.1966552734375
2020-12-01 18:30:17.5590,-0.5407609939575195,0.08079471439123154,-0.7629506587982178,0.6442108154296875,0.92156982421875,-0.157867431640625
2020-12-01 18:30:17.5760,-0.2803837358951569,-0.7008689045906067,0.009432383812963964,0.598541259765625,0.5963897705078125,-0.17718505859375
2020-12-01 18:30:17.6080,-0.10199081152677536,-1.822553753852844,0.5366544127464294,0.5164642333984375,0.4041290283203125,-0.222076416015625
2020-12-01 18:30:17.6250,0.1713150292634964,-1.807098627090454,0.7387164235115051,0.37054443359375,0.350830078125,-0.2061614990234375
2020-12-01 18:30:17.6420,0.3470242619514465,-1.1947659254074097,0.7460454106330872,0.2561187744140625,0.4021453857421875,-0.1452178955078125
2020-12-01 18:30:17.6590,0.3470242619514465,-1.1947659254074097,0.7460454106330872,0.193817138671875,0.4370269775390625,-0.0930328369140625
2020-12-01 18:30:17.6760,0.321470707654953,0.050863981246948235,0.6243626475334167,0.191131591796875,0.4419097900390625,-0.0295867919921875
2020-12-01 18:30:17.7080,-0.04109044373035431,4.334938049316406,0.8083738088607788,0.289825439453125,0.476165771484375,0.0682220458984375
2020-12-01 18:30:17.7250,-0.3256768882274628,5.34618616104126,1.0201212167739868,0.4235687255859375,0.5772247314453125,0.04638671875
2020-12-01 18:30:17.7420,-0.5192002654075623,3.9363722801208496,1.11126708984375,0.643890380859375,0.6773223876953125,-0.021514892578125
2020-12-01 18:30:17.7590,-0.5192002654075623,3.9363722801208496,1.11126708984375,0.9042205810546876,0.75592041015625,-0.15887451171875
2020-12-01 18:30:17.7760,-0.5321440696716309,1.2398444414138794,1.1499838829040527,1.053131103515625,0.79730224609375,-0.2459564208984375
2020-12-01 18:30:17.8080,-0.18169842660427094,-3.744138240814209,2.398214101791382,1.0664825439453125,0.8433837890625,-0.2320098876953125
2020-12-01 18:30:17.8250,-0.1048441231250763,-4.881423473358153,2.781881093978882,0.7910614013671875,0.9734649658203124,-0.1445159912109375
2020-12-01 18:30:17.8420,-0.11071346700191498,-5.265206813812256,2.973165273666382,0.6049041748046875,1.155487060546875,0.0238037109375
2020-12-01 18:30:17.8590,-0.11071346700191498,-5.265206813812256,2.973165273666382,0.3567352294921875,1.57421875,-0.14434814453125
2020-12-01 18:30:17.8760,0.19024823606014246,-6.447097301483153,2.184343814849853,0.4488067626953125,1.983001708984375,-0.1640167236328125
2020-12-01 18:30:17.9080,0.6165918111801147,-4.644089698791504,2.2566521167755127,0.5959930419921875,1.7061920166015625,0.0006561279296875
2020-12-01 18:30:17.9260,0.7739883661270142,-2.7942817211151123,2.6114766597747803,0.25048828125,1.3791656494140625,-0.0559234619140625
2020-12-01 18:30:17.9420,0.7739883661270142,-2.7942817211151123,2.6114766597747803,0.187164306640625,1.3680419921875,-0.0870513916015625
2020-12-01 18:30:17.9590,0.7859305143356323,-1.4633316993713381,2.612643003463745,0.3974151611328125,1.534912109375,-0.222900390625
2020-12-01 18:30:17.9760,0.8574308156967163,-1.4550851583480835,2.599210500717163,0.3974151611328125,1.534912109375,-0.222900390625
2020-12-01 18:30:18.0080,1.260626196861267,-2.533653974533081,2.0668094158172607,0.482452392578125,2.08203125,-0.20947265625
2020-12-01 18:30:18.0260,1.27432119846344,-2.175820589065552,1.8155959844589236,0.3714141845703125,1.9858245849609373,-0.1240081787109375
2020-12-01 18:30:18.0420,1.27432119846344,-2.175820589065552,1.8155959844589236,0.30950927734375,1.5316619873046875,0.0041656494140625
2020-12-01 18:30:18.0590,1.1844984292984009,-0.7945008277893066,1.9091708660125728,0.1815643310546875,1.238677978515625,-0.0216522216796875
2020-12-01 18:30:18.0750,1.0443911552429201,0.3368488550186157,1.9674789905548096,0.1815643310546875,1.238677978515625,-0.0216522216796875
2020-12-01 18:30:18.1080,0.7368431091308594,0.4516771733760834,1.7969213724136353,0.2251739501953125,1.014617919921875,-0.0555267333984375
2020-12-01 18:30:18.1250,0.6007380485534668,0.06526023149490356,1.7650790214538574,0.202545166015625,0.8140869140625,-0.0528411865234375
2020-12-01 18:30:18.1420,0.6007380485534668,0.06526023149490356,1.7650790214538574,0.1678924560546875,0.6895904541015625,-0.0385894775390625
2020-12-01 18:30:18.1590,0.40145182609558105,-0.13871634006500244,1.6935131549835205,0.1334991455078125,0.593597412109375,-0.00701904296875
2020-12-01 18:30:18.1750,0.2010742574930191,0.0883660838007927,1.7038089036941528,0.1334991455078125,0.593597412109375,-0.00701904296875
2020-12-01 18:30:18.2080,-0.06786053627729416,0.5670682191848755,1.4571446180343628,-0.0548095703125,0.4673309326171875,-0.0187835693359375
2020-12-01 18:30:18.2260,-0.1347077488899231,0.27949023246765137,0.9596250653266908,-0.1397857666015625,0.3924713134765625,-0.0324859619140625
2020-12-01 18:30:18.2420,-0.1347077488899231,0.27949023246765137,0.9596250653266908,-0.14776611328125,0.290496826171875,-0.0462188720703125
2020-12-01 18:30:18.2590,-0.22186022996902466,-0.03768985345959664,0.4870348870754242,-0.128265380859375,0.2411041259765625,-0.0607757568359375
2020-12-01 18:30:18.2760,-0.2689885795116425,-0.1754772812128067,0.1566692441701889,-0.128265380859375,0.2411041259765625,-0.0607757568359375
2020-12-01 18:30:18.3080,-0.2867979407310486,0.38962844014167786,-0.491008073091507,-0.105926513671875,0.3868865966796875,-0.055084228515625
2020-12-01 18:30:18.3260,-0.3118939697742462,0.9714964032173156,-0.9116836786270142,-0.1266021728515625,0.49542236328125,-0.055145263671875
2020-12-01 18:30:18.3420,-0.3118939697742462,0.9714964032173156,-0.9116836786270142,-0.0996551513671875,0.6083221435546875,-0.0462493896484375
2020-12-01 18:30:18.3590,-0.3794421255588532,1.535969853401184,-1.4021050930023191,-0.0211181640625,0.7619781494140625,-0.073211669921875
2020-12-01 18:30:18.3760,-0.4650174975395202,2.0089061260223393,-1.928859114646912,-0.0211181640625,0.7619781494140625,-0.073211669921875
2020-12-01 18:30:18.4080,-0.3098960816860199,2.0038495063781743,-2.776241540908813,0.2263641357421875,1.2781524658203125,-0.185302734375
2020-12-01 18:30:18.4250,-0.3098960816860199,2.0038495063781743,-2.776241540908813,0.30889892578125,1.3586273193359375,-0.1444549560546875
2020-12-01 18:30:18.4420,-0.3088718354701996,2.231618881225586,-2.988398551940918,0.31488037109375,1.341064453125,-0.155181884765625
2020-12-01 18:30:18.4590,-0.339966356754303,2.408829689025879,-3.319260835647583,0.358642578125,1.4486083984375,-0.1940155029296875
2020-12-01 18:30:18.4760,-0.17639873921871185,2.411639451980591,-3.664102792739868,0.358642578125,1.4486083984375,-0.1940155029296875
2020-12-01 18:30:18.5080,0.4897076487541199,1.979512453079224,-4.367626190185547,0.370086669921875,1.9454498291015625,-0.156341552734375
2020-12-01 18:30:18.5260,0.4897076487541199,1.979512453079224,-4.367626190185547,0.3800506591796875,2.112091064453125,-0.043975830078125
2020-12-01 18:30:18.5430,0.5788133144378662,1.9601802825927732,-4.6173601150512695,0.464385986328125,2.05926513671875,0.02191162109375
2020-12-01 18:30:18.5590,0.4067509770393372,1.8834077119827268,-4.797809600830078,0.464385986328125,2.05926513671875,0.02191162109375
2020-12-01 18:30:18.5760,0.05217638611793518,1.4283545017242432,-4.73517370223999,0.572357177734375,1.9729461669921875,0.0176239013671875
2020-12-01 18:30:18.6080,-0.4920317828655243,0.4144797325134277,-3.59250545501709,0.7820281982421875,1.7089996337890625,-0.115325927734375
2020-12-01 18:30:18.6250,-0.4920317828655243,0.4144797325134277,-3.59250545501709,0.7876739501953125,1.4058380126953125,-0.175933837890625
2020-12-01 18:30:18.6420,-0.483424186706543,-0.018974490463733677,-2.753345012664795,0.6903228759765625,1.1230621337890625,-0.220245361328125
2020-12-01 18:30:18.6590,-0.4189693033695221,-0.1919420063495636,-2.2229115962982178,0.6903228759765625,1.1230621337890625,-0.220245361328125
2020-12-01 18:30:18.6760,-0.25876498222351074,-0.5287874341011047,-1.509828805923462,0.7175750732421875,0.943115234375,-0.19525146484375
2020-12-01 18:30:18.7080,-0.000821318884845823,-0.46279561519622797,-0.020126840099692345,0.5814971923828125,0.5389862060546875,-0.1774749755859375
2020-12-01 18:30:18.7250,-0.000821318884845823,-0.46279561519622797,-0.020126840099692345,0.4028167724609375,0.5180511474609375,-0.155487060546875
2020-12-01 18:30:18.7420,0.10197217017412186,-0.21942582726478574,0.17979612946510315,0.2863311767578125,0.5330352783203125,-0.1096343994140625
2020-12-01 18:30:18.7590,0.09912046045064926,0.09076984971761703,0.01583222672343254,0.2863311767578125,0.5330352783203125,-0.1096343994140625
2020-12-01 18:30:18.7760,0.00031318774563260376,0.3028935492038727,-0.2505041062831879,0.2353973388671875,0.5256805419921875,-0.089599609375
2020-12-01 18:30:18.8080,-0.2528298497200012,0.3498389720916748,-0.3667335212230681,0.342529296875,0.4708404541015625,-0.1256561279296875
2020-12-01 18:30:18.8250,-0.2528298497200012,0.3498389720916748,-0.3667335212230681,0.378082275390625,0.4594268798828125,-0.1662750244140625
2020-12-01 18:30:18.8420,-0.3098113834857941,0.15144172310829165,-0.3161933720111847,0.404083251953125,0.498992919921875,-0.230804443359375
2020-12-01 18:30:18.8590,-0.24368083477020264,-0.1516726166009903,-0.2711904942989349,0.404083251953125,0.498992919921875,-0.230804443359375
2020-12-01 18:30:18.8760,-0.11431725323200224,-0.5206402540206909,-0.14262878894805908,0.424957275390625,0.581695556640625,-0.273162841796875
2020-12-01 18:30:18.9080,0.00459608342498541,-0.7943429350852966,0.056842777878046036,0.4463958740234375,0.8295440673828125,-0.2913665771484375
2020-12-01 18:30:18.9260,0.025522403419017792,-0.9581512808799744,0.26500317454338074,0.4451904296875,1.0060272216796875,-0.29290771484375
2020-12-01 18:30:18.9430,0.026133598759770397,-1.0385856628417969,0.44501662254333496,0.45220947265625,1.232513427734375,-0.301971435546875
2020-12-01 18:30:18.9590,0.06998973339796066,-1.0674012899398804,0.5927605032920837,0.45220947265625,1.232513427734375,-0.301971435546875
2020-12-01 18:30:18.9760,0.21078599989414212,-1.1652122735977173,0.7807520031929016,0.4697418212890625,1.4554901123046875,-0.3347930908203125
2020-12-01 18:30:19.0080,0.3464956283569336,-1.0185691118240356,1.1987521648406982,0.476593017578125,1.3812103271484375,-0.3122711181640625
2020-12-01 18:30:19.0260,0.4780576527118683,-0.53386390209198,1.8197102546691892,0.3935699462890625,1.387115478515625,-0.268585205078125
2020-12-01 18:30:19.0420,0.6077716946601868,-0.08334815502166748,2.289682626724243,0.3507843017578125,1.5920867919921875,-0.2662506103515625
2020-12-01 18:30:19.0590,0.6431821584701538,-0.142767533659935,2.432992935180664,0.3507843017578125,1.5920867919921875,-0.2662506103515625
2020-12-01 18:30:19.0760,0.6378451585769653,-0.3403298854827881,2.4964327812194824,0.3523406982421875,1.7616424560546875,-0.305908203125
2020-12-01 18:30:19.1080,0.7682159543037415,-0.5182729959487915,2.694888114929199,0.3002166748046875,1.8585205078125,-0.202362060546875
2020-12-01 18:30:19.1260,0.9672119021415709,-0.6959665417671204,2.908519506454468,0.2484283447265625,1.717041015625,-0.137298583984375
2020-12-01 18:30:19.1420,1.0268200635910034,-0.8379066586494446,2.9984660148620605,0.2484283447265625,1.717041015625,-0.137298583984375
2020-12-01 18:30:19.1590,0.9737113714218141,-0.8587543964385986,3.063628673553467,0.239013671875,1.6183013916015625,-0.116058349609375
2020-12-01 18:30:19.1760,0.9320701360702516,-0.8817777037620544,3.1255884170532227,0.2244873046875,1.5576019287109375,-0.089996337890625
2020-12-01 18:30:19.2090,0.920823872089386,-0.7784550189971924,3.1064388751983643,0.1708526611328125,1.2232666015625,-0.0375518798828125
2020-12-01 18:30:19.2250,0.8355462551116943,-0.6412995457649231,2.965784788131714,0.1642303466796875,1.10101318359375,-0.0147247314453125
2020-12-01 18:30:19.2420,0.6935572028160095,-0.5124992728233337,2.749583959579468,0.1642303466796875,1.10101318359375,-0.0147247314453125
2020-12-01 18:30:19.2590,0.5590494275093079,-0.35441774129867554,2.724766969680786,0.1768951416015625,0.994781494140625,-0.0281524658203125
2020-12-01 18:30:19.2760,0.4895537197589874,0.02322010137140751,2.8191335201263428,0.1806640625,0.8771514892578125,-0.0496063232421875
2020-12-01 18:30:19.3080,0.5486428737640381,0.4406969547271729,2.8530178070068364,0.0803070068359375,0.7747344970703125,-0.11456298828125
2020-12-01 18:30:19.3260,0.7517035603523254,0.5823909640312195,2.7737956047058105,0.0411376953125,0.6520233154296875,-0.107879638671875
2020-12-01 18:30:19.3420,0.828838586807251,0.2608925700187683,2.577449321746826,0.0411376953125,0.6520233154296875,-0.107879638671875
2020-12-01 18:30:19.3590,0.8144620060920715,-0.4355227053165436,2.307741403579712,0.033355712890625,0.5157623291015625,-0.107696533203125
2020-12-01 18:30:19.3760,0.8469978570938109,-0.8123418688774109,2.107604742050171,0.0951690673828125,0.4185333251953125,-0.1190948486328125
2020-12-01 18:30:19.4080,0.9658390283584596,-0.9990132451057434,2.0431876182556152,0.0386810302734375,0.4808502197265625,-0.0770263671875
2020-12-01 18:30:19.4260,1.0889700651168823,-0.8265924453735352,1.8784422874450684,-0.0691070556640625,0.55322265625,-0.0133514404296875
2020-12-01 18:30:19.4420,1.023101806640625,-0.3969156742095947,1.4944772720336914,-0.0691070556640625,0.55322265625,-0.0133514404296875
2020-12-01 18:30:19.4590,0.6859716773033142,0.05652133375406265,0.8886361122131348,-0.1156768798828125,0.5940399169921875,0.0038299560546875
2020-12-01 18:30:19.4760,0.2451431751251221,0.5917533040046692,0.16277852654457092,-0.10772705078125,0.6613922119140625,-0.01507568359375
2020-12-01 18:30:19.5090,-0.08136302977800369,0.9181199669837952,-0.5114755034446716,0.08184814453125,0.9185791015625,-0.141571044921875
2020-12-01 18:30:19.5250,-0.24726837873458865,0.9199519753456116,-1.0028111934661863,0.159515380859375,0.971160888671875,-0.1865692138671875
2020-12-01 18:30:19.5420,-0.3506890535354614,0.8619192838668823,-1.4044790267944336,0.159515380859375,0.971160888671875,-0.1865692138671875
2020-12-01 18:30:19.5590,-0.4309806823730469,0.8342743515968323,-1.817413568496704,0.1969451904296875,0.962738037109375,-0.2415008544921875
2020-12-01 18:30:19.5760,-0.4241501986980438,0.8051273822784424,-2.2593708038330083,0.195953369140625,1.0639495849609375,-0.258148193359375
2020-12-01 18:30:19.6080,-0.3717016577720642,0.6003230810165405,-2.949265956878662,0.1564788818359375,1.6353302001953125,-0.2539520263671875
2020-12-01 18:30:19.6260,-0.5562435388565063,0.2741255462169647,-3.8995070457458496,0.1564788818359375,1.6353302001953125,-0.2539520263671875
2020-12-01 18:30:19.6420,-0.9359615445137024,0.6029101014137268,-4.640676498413086,0.231842041015625,1.825927734375,-0.152069091796875
2020-12-01 18:30:19.6590,-1.283341646194458,0.9817144274711608,-5.060455799102783,0.3145904541015625,1.9193878173828125,-0.1490020751953125
2020-12-01 18:30:19.6760,-1.4807811975479126,1.262420892715454,-5.07736873626709,0.418060302734375,1.9667816162109373,-0.1772003173828125
2020-12-01 18:30:19.7090,-1.4222556352615356,1.4402800798416138,-4.703258514404297,0.565826416015625,1.7230682373046875,-0.269378662109375
2020-12-01 18:30:19.7260,-1.2273286581039429,1.4397794008255005,-4.210057735443115,0.565826416015625,1.7230682373046875,-0.269378662109375
2020-12-01 18:30:19.7430,-0.9172896146774292,0.9912173748016356,-3.797679662704468,0.643310546875,1.44403076171875,-0.3725128173828125
2020-12-01 18:30:19.7590,-0.6412319540977478,0.35178041458129883,-3.53517746925354,0.6412353515625,1.224334716796875,-0.367950439453125
2020-12-01 18:30:19.7760,-0.3591909110546112,-0.07587186247110367,-2.7196674346923833,0.681427001953125,1.059417724609375,-0.3156585693359375
2020-12-01 18:30:19.8080,-0.21816135942935946,-0.15032371878623962,-1.726410150527954,0.54638671875,0.6494903564453125,-0.174072265625
2020-12-01 18:30:19.8260,-0.18807803094387052,0.045938730239868164,-1.2548990249633791,0.54638671875,0.6494903564453125,-0.174072265625
2020-12-01 18:30:19.8430,-0.22097259759902954,0.4089025557041168,-1.2391949892044067,0.367828369140625,0.6415557861328125,-0.1254730224609375
2020-12-01 18:30:19.8590,-0.2624281644821167,0.8118391036987305,-1.338716745376587,0.3049774169921875,0.6961212158203125,-0.094085693359375
2020-12-01 18:30:19.8760,-0.2551851570606232,1.1987290382385254,-1.4032506942749023,0.2942657470703125,0.742095947265625,-0.075592041015625
2020-12-01 18:30:19.9080,-0.22321604192256927,1.3903613090515137,-1.4812605381011963,0.344879150390625,0.77545166015625,-0.098175048828125
2020-12-01 18:30:19.9250,-0.20504635572433472,1.3442316055297852,-1.5424610376358032,0.344879150390625,0.77545166015625,-0.098175048828125
2020-12-01 18:30:19.9430,-0.17407459020614624,1.172692060470581,-1.5813949108123782,0.388641357421875,0.8146514892578125,-0.117645263671875
2020-12-01 18:30:19.9590,-0.1813463568687439,0.8435392379760742,-1.6121206283569336,0.4246826171875,0.882415771484375,-0.130859375
2020-12-01 18:30:19.9760,-0.21559593081474304,0.5132518410682678,-1.5855814218521118,0.4583282470703125,0.943572998046875,-0.1615447998046875
2020-12-01 18:30:20.0080,-0.2476891577243805,0.31016212701797485,-1.4689810276031494,0.537506103515625,1.1086883544921875,-0.1878662109375
2020-12-01 18:30:20.0260,-0.19566670060157776,0.2309703677892685,-1.2756613492965698,0.537506103515625,1.1086883544921875,-0.1878662109375
2020-12-01 18:30:20.0430,-0.13854482769966125,0.17880409955978396,-1.0209691524505615,0.5569305419921875,1.225189208984375,-0.20635986328125
2020-12-01 18:30:20.0590,-0.18128830194473267,0.26884186267852783,-0.6840994954109192,0.6100311279296875,1.24847412109375,-0.210662841796875
2020-12-01 18:30:20.0760,-0.18128830194473267,0.26884186267852783,-0.6840994954109192,0.68115234375,1.1549530029296875,-0.2140960693359375
2020-12-01 18:30:20.1090,-0.25586560368537903,0.4155985414981842,0.5476412773132324,0.7237548828125,1.1056671142578125,-0.23590087890625
2020-12-01 18:30:20.1260,-0.12095758318901062,0.12551504373550415,1.154996395111084,0.717041015625,1.21209716796875,-0.2757415771484375
2020-12-01 18:30:20.1430,0.0729445144534111,-0.37852492928504944,1.571370244026184,0.694427490234375,1.3344573974609375,-0.2954254150390625
2020-12-01 18:30:20.1590,0.2477591931819916,-0.877934992313385,1.9603110551834104,0.6674346923828125,1.4411773681640625,-0.27880859375
2020-12-01 18:30:20.1760,0.2477591931819916,-0.877934992313385,1.9603110551834104,0.619232177734375,1.5403900146484375,-0.2180023193359375
2020-12-01 18:30:20.2080,0.4524194002151489,-1.5036766529083252,2.8053810596466064,0.5298309326171875,1.50628662109375,-0.1221923828125
2020-12-01 18:30:20.2250,0.3330937922000885,-1.7515056133270264,2.9105753898620605,0.4413299560546875,1.419830322265625,-0.0417022705078125
2020-12-01 18:30:20.2420,0.2115018665790558,-1.8426179885864256,2.9656922817230225,0.4160614013671875,1.5030670166015625,-0.037384033203125
2020-12-01 18:30:20.2590,0.4379030466079712,-1.7342286109924316,3.228115558624268,0.42431640625,1.7636871337890625,-0.1023101806640625
2020-12-01 18:30:20.2760,0.4379030466079712,-1.7342286109924316,3.228115558624268,0.36041259765625,1.6917877197265625,-0.0453033447265625
2020-12-01 18:30:20.3080,0.8146540522575378,-1.1200896501541138,3.5542209148406982,0.27789306640625,1.3539886474609375,-0.0034332275390625
2020-12-01 18:30:20.3260,0.6068862080574036,-0.7972087264060974,3.6757831573486333,0.2542877197265625,1.1378173828125,0.027862548828125
2020-12-01 18:30:20.3420,0.3951129615306854,-0.4413891136646271,3.8371422290802,0.2528839111328125,1.0010528564453125,0.037994384765625
2020-12-01 18:30:20.3590,0.2692194879055023,-0.3079413175582886,3.9379518032073975,0.2488861083984375,0.92169189453125,0.0410614013671875
2020-12-01 18:30:20.3760,0.2692194879055023,-0.3079413175582886,3.9379518032073975,0.2188262939453125,0.8687286376953125,0.0041656494140625
2020-12-01 18:30:20.4080,0.23571425676345825,-0.8978810310363771,3.7015047073364262,0.205413818359375,0.83514404296875,-0.0222320556640625
2020-12-01 18:30:20.4260,0.3016570508480072,-1.0296574831008911,3.6328125,0.1777801513671875,0.7881622314453125,-0.0291748046875
2020-12-01 18:30:20.4420,0.3774234652519226,-1.0483267307281494,3.498286247253418,0.0994415283203125,0.7459716796875,0.010528564453125
2020-12-01 18:30:20.4590,0.44218167662620544,-1.0848442316055298,3.0606894493103027,0.020294189453125,0.7421722412109375,0.01788330078125
2020-12-01 18:30:20.4760,0.44218167662620544,-1.0848442316055298,3.0606894493103027,-0.0384368896484375,0.8053741455078125,0.052459716796875
2020-12-01 18:30:20.5080,0.36147403717041016,-0.910957932472229,1.539632797241211,-0.0570526123046875,0.929534912109375,0.075164794921875
2020-12-01 18:30:20.5260,0.178144171833992,-0.6356083750724792,0.8456380367279053,-0.056121826171875,0.9940948486328124,0.0852508544921875
2020-12-01 18:30:20.5430,-0.023695209994912148,-0.33992934226989746,0.3699583411216736,-0.0336456298828125,1.01226806640625,0.0994415283203125
2020-12-01 18:30:20.5590,-0.2643373906612396,-0.020780378952622414,-0.009888849221169949,0.0485687255859375,1.0534210205078125,0.065948486328125
2020-12-01 18:30:20.5760,-0.2643373906612396,-0.020780378952622414,-0.009888849221169949,0.084503173828125,1.109222412109375,-0.0226593017578125
2020-12-01 18:30:20.6080,-0.3141264915466309,0.325392484664917,-0.5915045738220215,0.1067047119140625,1.1121826171875,-0.0760955810546875
