time,ax,ay,az,atotal
0.022075891494750977,-0.14,0.25,0.0,0.28
0.025289058685302734,0.0,0.23,-0.21,0.31
0.027888774871826172,0.07,0.15,-0.19,0.25
0.031049728393554688,0.07,0.04,-0.01,0.08
0.03760671615600586,0.03,0.05,0.07,0.09
0.04799485206604004,-0.04,0.08,0.1,0.13
0.05816483497619629,-0.09,0.1,0.08,0.15
0.06793880462646484,-0.15,0.12,0.07,0.2
0.07808780670166016,-0.21,0.11,0.03,0.23
0.08777570724487305,-0.21,0.12,-0.03,0.24
0.11060285568237305,-0.2,0.13,-0.06,0.24
0.11315488815307617,-0.2,0.14,-0.06,0.25
0.11810493469238281,-0.16,0.15,-0.07,0.23
0.12830305099487305,-0.11,0.14,-0.11,0.2
0.1378328800201416,-0.11,0.16,-0.21,0.28
0.14839386940002441,-0.11,0.2,-0.29,0.36
0.15841102600097656,-0.1,0.29,-0.36,0.47
0.16865992546081543,-0.15,0.32,-0.45,0.57
0.1826610565185547,-0.22,0.27,-0.48,0.59
0.188385009765625,-0.46,0.16,-0.47,0.67
0.21411705017089844,-0.58,0.06,-0.56,0.8
0.21711397171020508,-0.57,0.09,-0.65,0.86
0.21964073181152344,-0.55,0.18,-0.78,0.97
0.2285919189453125,-0.45,0.28,-0.81,0.96
0.23846101760864258,-0.39,0.29,-0.83,0.96
0.24872303009033203,-0.43,0.31,-0.85,1.0
0.2588820457458496,-0.47,0.25,-0.86,1.01
0.26842689514160156,-0.52,0.29,-0.82,1.01
0.2795877456665039,-0.72,0.48,-0.58,1.04
0.29280591011047363,-0.86,0.63,-0.59,1.21
0.31144094467163086,-0.84,0.59,-0.94,1.39
0.3144378662109375,-0.86,0.55,-1.15,1.53
0.3186817169189453,-0.92,0.53,-1.3,1.67
0.32878875732421875,-1.05,0.5,-1.34,1.77
0.3390159606933594,-1.15,0.56,-1.4,1.89
0.34886884689331055,-1.19,0.82,-1.43,2.03
0.35884785652160645,-1.23,1.18,-1.63,2.35
0.36878395080566406,-1.36,1.49,-1.75,2.67
0.3796248435974121,-1.5,1.69,-1.57,2.75
0.38966989517211914,-1.51,1.75,-1.12,2.56
0.41613292694091797,-1.44,1.74,-0.76,2.38
0.4191107749938965,-1.28,1.75,-0.53,2.23
0.4218177795410156,-0.94,1.66,-0.34,1.93
0.4293248653411865,-0.48,1.71,-0.14,1.78
0.4395279884338379,-0.27,1.69,-0.35,1.74
0.44919586181640625,0.03,1.64,-0.53,1.72
0.4593698978424072,0.22,1.86,-0.67,1.98
0.4689669609069824,0.22,2.12,-1.02,2.36
0.47993898391723633,0.14,2.28,-1.21,2.58
0.49376773834228516,0.04,2.31,-1.32,2.66
0.5124218463897705,-0.11,2.29,-1.48,2.72
0.515049934387207,-0.25,2.25,-1.65,2.8
0.5194687843322754,-0.34,2.12,-1.87,2.84
0.5294618606567383,-0.42,1.99,-2.18,2.98
0.5396928787231445,-0.53,1.87,-2.55,3.2
0.5495657920837402,-0.61,1.58,-3.06,3.49
0.5594830513000488,-0.67,1.29,-3.38,3.67
0.5751357078552246,-0.79,1.52,-2.93,3.39
0.579777717590332,-0.88,1.69,-2.85,3.42
0.5903329849243164,-0.97,1.47,-3.37,3.8
0.6148929595947266,-1.08,1.06,-3.47,3.78
0.6175508499145508,-1.0,0.59,-3.06,3.27
0.6201930046081543,-1.08,0.23,-2.7,2.91
0.6299457550048828,-0.99,-0.17,-2.84,3.01
0.6400127410888672,-0.78,-0.25,-2.75,2.86
0.6500949859619141,-0.72,-0.14,-2.84,2.93
0.6600627899169922,-0.66,-0.18,-3.18,3.25
0.6700189113616943,-0.61,-0.2,-3.47,3.52
0.6843209266662598,-0.47,-0.17,-3.6,3.63
0.6899638175964355,-0.28,-0.23,-3.55,3.56
0.7159469127655029,-0.05,-0.32,-3.47,3.48
0.7186448574066162,0.3,-0.52,-3.52,3.57
0.7211308479309082,0.7,-0.64,-3.43,3.55
0.7302918434143066,1.07,-0.87,-3.56,3.81
0.7402908802032471,1.56,-1.56,-3.99,4.55
0.7501959800720215,1.76,-2.18,-3.4,4.4
0.7605788707733154,1.98,-2.89,-2.28,4.17
0.7701778411865234,2.04,-3.55,-1.63,4.4
0.7806439399719238,1.95,-3.61,-1.41,4.33
0.7910480499267578,2.13,-3.67,-1.31,4.44
0.815281867980957,2.58,-3.97,-1.1,4.86
0.8179869651794434,3.03,-4.23,-0.71,5.25
0.8205947875976562,3.46,-4.29,-0.43,5.52
0.830866813659668,3.62,-4.09,-0.27,5.46
0.840601921081543,3.76,-3.71,-0.16,5.28
0.8505339622497559,3.67,-3.41,0.69,5.05
0.8609099388122559,3.38,-3.63,1.49,5.17
0.8705577850341797,2.9,-3.7,2.13,5.16
0.8807499408721924,2.39,-3.3,2.69,4.88
0.8914508819580078,1.88,-2.73,3.11,4.54
0.9175677299499512,1.45,-2.39,3.49,4.47
0.9202837944030762,1.16,-2.24,3.71,4.48
0.922705888748169,1.03,-2.21,3.96,4.65
0.9309349060058594,1.15,-2.23,4.32,4.99
0.94107985496521,1.41,-2.34,4.58,5.33
0.9509499073028564,1.81,-2.68,4.51,5.54
0.9608960151672363,2.27,-2.89,4.17,5.55
0.9711060523986816,2.73,-2.98,4.03,5.7
0.9817578792572021,3.13,-3.1,4.24,6.11
0.9950659275054932,3.38,-3.15,4.41,6.38
1.0157999992370605,3.58,-3.01,4.44,6.44
1.018399715423584,3.69,-2.65,4.49,6.38
1.0210838317871094,3.63,-2.07,4.5,6.14
1.0312318801879883,3.37,-1.36,4.47,5.76
1.0410809516906738,3.06,-0.48,4.7,5.62
1.0513677597045898,2.62,0.5,4.86,5.54
1.0612728595733643,2.12,1.5,4.99,5.62
1.0718207359313965,1.7,2.39,5.05,5.83
1.085679054260254,1.31,3.13,5.03,6.06
1.0917048454284668,0.96,3.76,4.94,6.28
1.120271921157837,0.72,4.23,4.76,6.4
1.1229588985443115,0.57,4.56,4.42,6.37
1.1254098415374756,0.45,4.85,4.03,6.32
1.131725788116455,0.41,5.02,3.74,6.27
1.1414990425109863,0.42,5.1,3.45,6.17
1.1516480445861816,0.48,5.06,3.2,6.0
1.1614959239959717,0.57,4.96,3.04,5.84
1.1714777946472168,0.67,4.78,2.98,5.67
1.1818909645080566,0.79,4.49,3.06,5.49
1.192497730255127,0.97,4.14,3.23,5.33
1.2149348258972168,1.19,3.79,3.43,5.24
1.2175848484039307,1.38,3.48,3.58,5.17
1.2217109203338623,1.55,3.27,3.81,5.25
1.2322640419006348,1.67,3.02,4.14,5.38
1.2419309616088867,1.73,2.75,4.57,5.6
1.2516968250274658,1.83,2.42,5.07,5.9
1.2620949745178223,1.99,2.05,5.56,6.25
1.272014856338501,2.23,1.57,6.1,6.68
1.2828149795532227,2.72,1.0,6.49,7.1
1.2959589958190918,3.38,0.46,6.55,7.38
1.3172428607940674,4.08,0.14,6.34,7.54
1.3199620246887207,4.6,-0.13,5.85,7.44
1.3224177360534668,4.96,-0.61,5.26,7.25
1.3322229385375977,5.33,-1.31,5.29,7.62
1.3424320220947266,5.66,-2.06,5.87,8.41
1.3521418571472168,5.91,-2.14,6.16,8.8
1.3622617721557617,5.9,-1.45,5.64,8.28
1.3725168704986572,5.53,-0.75,4.72,7.3
1.3823368549346924,5.08,-0.67,4.13,6.58
1.396622896194458,4.63,-0.8,3.92,6.11
1.4155328273773193,4.28,-1.3,3.53,5.69
1.418285846710205,3.97,-1.6,3.27,5.38
1.4225099086761475,3.47,-1.53,3.18,4.94
1.4327349662780762,2.85,-1.37,2.93,4.31
1.4426259994506836,2.12,-1.25,2.64,3.6
1.4527418613433838,1.52,-1.25,2.24,2.98
1.4627790451049805,1.08,-1.35,1.73,2.44
1.4726300239562988,0.74,-1.42,1.27,2.04
1.48341703414917,0.46,-1.42,0.85,1.71
1.496680736541748,0.21,-1.11,0.4,1.19
1.5171170234680176,-0.1,-0.71,0.02,0.71
1.519838809967041,-0.37,-0.34,-0.42,0.65
1.5227868556976318,-0.66,-0.09,-0.74,0.99
1.5331788063049316,-0.92,0.05,-1.08,1.41
1.5432078838348389,-1.03,0.06,-1.33,1.68
1.5527868270874023,-1.1,-0.14,-1.73,2.05
1.5632400512695312,-1.13,-0.37,-2.08,2.39
1.5728139877319336,-1.23,-0.6,-2.5,2.85
1.5830209255218506,-1.25,-0.82,-2.61,3.0
1.5941047668457031,-1.11,-1.18,-2.7,3.14
1.6200857162475586,-0.88,-1.65,-2.92,3.46
1.62264084815979,-0.67,-2.17,-3.11,3.85
1.625135898590088,-0.51,-2.79,-3.17,4.25
1.6331918239593506,-0.31,-3.5,-3.05,4.65
1.6433830261230469,-0.02,-4.21,-3.05,5.19
1.653183937072754,0.25,-4.88,-3.03,5.74
1.6635708808898926,0.54,-5.61,-3.04,6.4
1.673266887664795,0.79,-6.31,-3.15,7.09
1.6835129261016846,0.89,-6.82,-3.43,7.68
1.6977758407592773,0.81,-6.99,-3.82,8.0
1.7173519134521484,0.42,-6.68,-4.2,7.9
1.7201709747314453,-0.22,-6.08,-4.6,7.62
1.7235028743743896,-1.0,-5.47,-4.89,7.4
1.7335457801818848,-1.67,-5.06,-4.92,7.25
1.7437267303466797,-2.1,-5.04,-4.82,7.28
1.7535090446472168,-2.35,-5.34,-4.65,7.46
1.7637019157409668,-2.44,-5.45,-4.27,7.34
1.7737948894500732,-2.52,-5.17,-3.77,6.87
1.7883868217468262,-2.57,-4.6,-3.56,6.35
1.7938499450683594,-2.49,-3.8,-3.65,5.82
1.8211417198181152,-2.3,-3.17,-4.02,5.61
1.8242177963256836,-1.58,-2.91,-4.26,5.39
1.8267149925231934,-0.71,-2.71,-4.51,5.3
1.8338470458984375,0.23,-2.37,-4.69,5.25
1.8440759181976318,1.33,-2.32,-4.39,5.14
1.8538990020751953,2.29,-2.75,-3.95,5.33
1.8642687797546387,3.08,-3.23,-3.58,5.72
1.8739967346191406,3.69,-3.21,-3.22,5.85
1.8894009590148926,3.95,-3.23,-3.12,5.98
1.8942017555236816,4.14,-2.98,-2.74,5.79
1.918097972869873,3.96,-2.57,-2.13,5.17
1.9217348098754883,3.53,-2.31,-1.76,4.57
1.924278736114502,2.87,-1.81,-0.92,3.51
1.9341368675231934,2.03,-2.16,-0.43,2.99
1.9441618919372559,1.45,-1.82,-0.34,2.35
1.954253911972046,0.76,-1.29,0.3,1.52
1.9645469188690186,0.17,-1.02,0.63,1.21
1.9751508235931396,-0.33,-0.48,0.77,0.96
1.9894838333129883,-0.91,0.24,0.82,1.24
1.9944348335266113,-1.57,0.99,0.75,2.0
2.022765874862671,-2.06,1.57,0.56,2.64
2.0255837440490723,-2.43,1.75,0.44,3.02
2.028043746948242,-2.84,1.89,0.52,3.45
2.0345399379730225,-3.25,2.23,0.61,3.98
2.0445480346679688,-3.62,2.64,0.83,4.55
2.0544328689575195,-3.93,3.07,1.02,5.09
2.0648279190063477,-4.11,3.34,1.36,5.46
2.074741840362549,-4.17,3.35,1.8,5.64
2.0846567153930664,-4.16,3.09,2.24,5.64
2.098917007446289,-3.94,2.74,2.77,5.54
2.1173088550567627,-3.6,2.33,3.37,5.45
2.1201188564300537,-3.14,1.92,4.04,5.46
2.124703884124756,-2.51,1.44,4.56,5.4
2.1348278522491455,-1.79,0.96,5.09,5.48
2.1449227333068848,-0.89,0.51,5.63,5.72
2.1549320220947266,0.07,-0.04,6.01,6.01
2.1649017333984375,1.01,-0.57,6.13,6.23
2.179337978363037,1.95,-0.91,6.22,6.58
2.1851248741149902,2.36,-0.84,6.1,6.59
2.199215888977051,2.48,-0.49,6.13,6.63
2.217684745788574,3.07,-0.88,6.98,7.67
2.2204818725585938,4.09,-1.99,8.12,9.3
2.225015878677368,5.19,-2.7,8.46,10.28
2.235334873199463,6.02,-2.74,7.36,9.89
2.2452118396759033,6.29,-2.61,5.4,8.69
2.255290985107422,5.66,-2.61,4.26,7.54
2.265359878540039,4.77,-2.74,4.2,6.92
2.2752819061279297,4.16,-3.1,4.46,6.84
2.285886764526367,3.77,-3.6,4.54,6.91
2.299078941345215,3.59,-4.25,4.3,7.03
2.3207297325134277,3.44,-4.85,3.7,7.0
2.3238368034362793,3.09,-5.09,3.06,6.69
2.3264217376708984,2.48,-4.61,2.51,5.8
2.335554838180542,1.83,-3.55,2.04,4.48
2.345613956451416,1.14,-2.38,1.55,3.06
2.355609893798828,0.43,-1.35,1.17,1.83
2.365757942199707,-0.18,-0.6,0.85,1.05
2.375623941421509,-0.72,-0.1,0.44,0.84
2.3908920288085938,-1.19,0.29,-0.06,1.22
2.3957958221435547,-1.52,0.62,-0.63,1.75
2.419947862625122,-1.81,0.84,-1.19,2.32
2.422916889190674,-2.02,0.92,-1.76,2.83
2.4257779121398926,-2.16,0.91,-2.35,3.31
2.435767889022827,-2.3,0.88,-2.9,3.8
2.446037769317627,-2.46,0.83,-3.34,4.23
2.4559519290924072,-2.61,0.76,-3.68,4.57
2.4662747383117676,-2.74,0.6,-3.96,4.85
2.47603178024292,-2.85,0.42,-4.12,5.02
2.48598575592041,-2.94,0.2,-4.26,5.17
2.500210762023926,-2.93,-0.05,-4.37,5.26
2.519084930419922,-2.85,-0.36,-4.41,5.26
2.5225868225097656,-2.73,-0.71,-4.41,5.23
2.52614688873291,-2.54,-1.11,-4.37,5.17
2.536190986633301,-2.39,-1.5,-4.39,5.21
2.5463147163391113,-2.21,-1.78,-4.45,5.27
2.556241989135742,-2.04,-2.08,-4.48,5.34
2.566227912902832,-1.88,-2.42,-4.44,5.39
2.5806407928466797,-1.67,-2.77,-4.38,5.44
2.586484909057617,-1.38,-3.15,-4.42,5.6
2.60048770904541,-0.93,-3.66,-4.45,5.83
2.619386911392212,-0.33,-4.18,-4.33,6.02
2.6231348514556885,0.28,-4.62,-4.18,6.23
2.6264848709106445,0.76,-4.83,-4.36,6.55
2.636441707611084,1.09,-4.81,-4.92,6.96
2.646669864654541,1.46,-4.96,-5.44,7.5
2.656514883041382,1.85,-5.62,-5.81,8.29
2.6718509197235107,1.92,-6.27,-5.45,8.52
2.6768198013305664,1.51,-6.24,-4.39,7.77
2.687412738800049,0.79,-5.57,-3.31,6.52
2.700265884399414,0.2,-4.49,-2.67,5.22
2.7200608253479004,-0.09,-3.32,-2.39,4.09
2.7230758666992188,0.09,-2.85,-2.06,3.51
2.7270050048828125,0.76,-3.06,-1.49,3.48
2.7367730140686035,1.64,-3.74,-0.89,4.17
2.7469959259033203,2.69,-4.67,-0.23,5.39
2.7569048404693604,3.71,-5.41,0.05,6.56
2.766913890838623,4.35,-5.37,-0.05,6.91
2.777301788330078,4.7,-4.61,-0.19,6.58
2.7872889041900635,5.18,-3.74,-0.61,6.41
2.800473928451538,5.19,-2.98,-1.14,6.09
2.8213987350463867,4.81,-2.37,-1.09,5.47
2.824610710144043,4.26,-1.76,-0.76,4.67
2.827122926712036,3.38,-0.91,-0.61,3.55
2.837218761444092,2.3,0.17,-0.47,2.35
2.847254753112793,1.25,1.16,-0.14,1.71
2.8574748039245605,0.36,1.89,0.22,1.93
2.867224931716919,-0.39,2.47,0.45,2.54
2.877539873123169,-0.99,2.91,0.61,3.13
2.88730788230896,-1.44,3.28,0.64,3.63
2.8973608016967773,-1.83,3.7,0.64,4.17
2.9262518882751465,-2.07,4.04,0.78,4.6
2.929318904876709,-2.22,4.38,1.08,5.02
2.931828022003174,-2.31,4.73,1.81,5.56
2.9374608993530273,-2.44,4.95,2.86,6.21
2.947690963745117,-2.34,4.75,3.92,6.58
2.9575047492980957,-1.96,4.09,4.95,6.71
2.968662738800049,-1.2,3.05,5.78,6.64
2.9776229858398438,-0.11,1.96,6.26,6.56
2.987778902053833,0.88,1.1,6.15,6.3
2.99837589263916,1.59,0.64,5.86,6.1
3.025251865386963,2.05,0.4,5.65,6.02
3.0289440155029297,2.36,0.25,5.9,6.35
3.0314278602600098,2.43,0.15,6.56,6.99
3.037731885910034,2.28,0.1,7.15,7.5
3.04805588722229,2.02,0.16,7.48,7.74
3.057839870452881,1.83,0.14,7.61,7.82
3.0681138038635254,1.85,-0.24,7.86,8.07
3.077970027923584,1.96,-0.85,7.9,8.18
3.088477849960327,2.12,-1.38,7.76,8.16
3.101975917816162,2.21,-1.7,7.44,7.94
3.121016025543213,2.26,-1.68,7.0,7.54
3.1236889362335205,2.47,-1.65,6.51,7.15
3.1281468868255615,3.23,-2.45,6.25,7.44
3.138082981109619,4.37,-3.89,6.73,8.91
3.1484858989715576,5.32,-5.05,7.2,10.27
3.1582818031311035,5.45,-5.48,7.02,10.44
3.168642044067383,4.73,-4.54,6.52,9.24
3.1820878982543945,3.8,-2.82,5.68,7.39
3.1885337829589844,3.04,-1.39,4.73,5.79
3.2022438049316406,2.59,-0.76,4.07,4.88
3.22171688079834,2.41,-1.05,3.79,4.61
3.225515842437744,2.42,-1.82,3.66,4.75
3.2285289764404297,2.53,-2.73,3.34,5.0
3.2385597229003906,2.62,-3.53,2.96,5.29
3.2485978603363037,2.53,-3.96,2.46,5.3
3.25887393951416,2.18,-4.1,1.85,4.99
3.269131898880005,1.73,-4.24,1.35,4.77
3.2835097312927246,1.4,-4.49,0.97,4.8
3.2895517349243164,1.03,-4.67,0.73,4.83
3.302616834640503,0.28,-4.86,1.4,5.06
3.3234519958496094,-0.46,-6.13,-0.12,6.14
3.3265209197998047,-0.48,-5.87,-1.53,6.08
3.3291430473327637,-0.24,-4.07,-3.8,5.57
3.3390798568725586,-0.81,-2.44,-4.74,5.39
3.348989963531494,-1.27,-1.65,-4.07,4.57
3.3591248989105225,-1.62,-1.47,-3.32,3.97
3.368967056274414,-2.12,-1.36,-3.04,3.94
3.3788938522338867,-2.49,-1.2,-2.87,3.98
3.3894169330596924,-2.71,-1.18,-2.66,3.97
3.399777889251709,-2.86,-1.42,-2.55,4.08
3.427428722381592,-3.02,-1.72,-2.55,4.31
3.431128978729248,-3.18,-2.04,-2.51,4.53
3.4336657524108887,-3.38,-2.37,-2.59,4.87
3.4391069412231445,-3.57,-2.64,-2.65,5.17
3.449286937713623,-3.7,-2.9,-2.66,5.4
3.4592537879943848,-3.87,-3.2,-2.7,5.7
3.469329833984375,-4.08,-3.51,-2.68,6.01
3.479395866394043,-4.31,-3.8,-2.75,6.37
3.489764928817749,-4.51,-4.08,-3.16,6.85
3.503917932510376,-4.74,-4.41,-3.61,7.41
3.523664951324463,-4.69,-4.72,-4.17,7.85
3.5267157554626465,-4.82,-5.04,-4.72,8.42
3.529477834701538,-4.96,-5.47,-4.57,8.68
3.5395328998565674,-5.05,-5.78,-3.86,8.59
3.5499157905578613,-5.22,-5.83,-3.0,8.38
3.5596489906311035,-5.33,-5.74,-2.34,8.17
3.5695948600769043,-5.4,-5.45,-2.25,7.99
3.57985782623291,-5.22,-5.47,-2.17,7.86
3.590343952178955,-4.57,-6.22,-1.94,7.95
3.5999088287353516,-3.64,-7.56,-1.27,8.48
3.627694845199585,-2.7,-8.68,-0.12,9.09
3.6313509941101074,-1.98,-8.98,1.06,9.25
3.633868932723999,-1.56,-8.31,1.55,8.59
3.6397900581359863,-1.45,-7.01,1.3,7.27
3.6500298976898193,-1.31,-5.92,0.76,6.11
3.6601269245147705,-1.18,-5.45,0.67,5.61
3.6698849201202393,-0.86,-5.55,1.27,5.75
3.6802029609680176,-0.23,-5.84,2.09,6.2
3.689985752105713,0.77,-6.24,2.69,6.83
3.7005789279937744,1.71,-6.52,2.72,7.26
3.7255897521972656,2.41,-6.53,2.19,7.29
3.7285659313201904,2.96,-6.14,1.46,6.97
3.7310867309570312,3.44,-5.32,0.57,6.36
3.7466578483581543,3.72,-4.31,-0.25,5.69
3.7502317428588867,3.75,-3.35,-0.57,5.06
3.7603588104248047,3.46,-2.46,-0.6,4.28
3.770195960998535,3.07,-1.51,-0.64,3.48
3.7805018424987793,2.67,-0.45,-0.78,2.81
3.794581890106201,2.25,0.4,-0.83,2.43
3.800494909286499,1.92,0.89,-0.74,2.24
3.8250207901000977,1.67,1.27,-0.62,2.18
3.8280389308929443,1.46,1.68,-0.46,2.27
3.830643892288208,1.31,2.15,-0.29,2.53
3.840833902359009,1.19,2.53,-0.17,2.8
3.850660800933838,1.09,2.76,0.03,2.96
3.860747814178467,1.16,2.98,0.31,3.21
3.870492935180664,1.3,3.16,0.48,3.45
3.8809070587158203,1.55,3.22,0.62,3.62
3.891052722930908,1.89,3.26,0.7,3.83
3.905704975128174,2.22,3.3,0.77,4.05
3.9240849018096924,2.5,3.34,0.93,4.27
3.9271228313446045,2.77,3.38,1.21,4.53
3.930881977081299,3.02,3.44,1.63,4.85
3.940840721130371,3.2,3.54,2.0,5.17
3.9511139392852783,3.38,3.65,2.33,5.49
3.9610939025878906,3.65,3.76,2.67,5.88
3.970775842666626,4.02,3.79,2.98,6.27
3.9811768531799316,4.46,3.7,3.26,6.64
3.9918370246887207,5.05,3.43,3.45,7.01
4.001166820526123,5.75,3.06,3.57,7.42
4.028767824172974,6.53,2.74,3.63,7.95
4.031548976898193,7.22,2.65,3.42,8.41
4.033994913101196,7.85,2.73,3.03,8.84
4.041970729827881,8.54,2.46,2.85,9.33
4.046849727630615,9.44,1.33,3.22,10.06
4.05738091468811,10.65,-0.17,3.78,11.3
4.066961765289307,11.77,-1.11,3.94,12.46
4.077151775360107,12.05,-1.06,3.39,12.56
4.087361812591553,11.2,-0.52,2.76,11.54
4.096996784210205,9.9,-0.65,2.76,10.29
4.111404895782471,8.62,-1.34,2.97,9.21
4.131176948547363,7.65,-1.95,3.22,8.52
4.133864879608154,6.79,-2.13,3.15,7.78
4.137127876281738,6.02,-1.99,3.05,7.03
4.147176742553711,5.13,-1.43,2.82,6.02
4.157343864440918,4.2,-0.65,2.55,4.95
4.167588710784912,3.32,-0.1,2.45,4.12
4.177355766296387,2.59,0.04,2.44,3.55
4.187372922897339,2.06,-0.14,2.3,3.09
4.1976158618927,1.73,-0.42,2.02,2.69
4.208091735839844,1.34,-0.73,1.58,2.19
4.226435899734497,0.94,-0.97,1.2,1.8
4.229179859161377,0.58,-1.13,0.93,1.57
4.237378835678101,0.2,-1.34,0.67,1.51
4.24773383140564,-0.2,-1.56,0.44,1.63
4.257695913314819,-0.58,-1.77,0.43,1.91
4.26774787902832,-0.94,-2.09,0.41,2.32
4.277655839920044,-1.28,-2.5,0.41,2.83
4.287698745727539,-1.52,-2.74,0.42,3.16
4.302013874053955,-1.69,-2.99,0.37,3.45
4.307874917984009,-1.85,-3.33,0.33,3.82
4.323424816131592,-1.98,-3.64,0.26,4.15
4.327877044677734,-2.11,-3.92,0.33,4.46
4.338019847869873,-2.28,-4.17,0.46,4.77
4.347955703735352,-2.53,-4.4,0.54,5.1
4.358112812042236,-2.83,-4.54,0.62,5.38
4.367853879928589,-3.2,-4.56,0.68,5.61
4.378102779388428,-3.5,-4.6,0.74,5.82
4.388828754425049,-3.69,-4.61,0.83,5.96
4.402251720428467,-3.96,-4.72,0.77,6.2
4.408802032470703,-4.36,-4.98,0.63,6.64
4.426585912704468,-4.9,-5.41,0.35,7.3
4.430327892303467,-5.37,-5.93,-0.05,8.0
4.438344955444336,-5.62,-6.5,-0.36,8.6
4.448197841644287,-5.59,-6.86,-0.53,8.86
4.458572864532471,-5.58,-6.81,-0.44,8.81
4.468294858932495,-5.41,-6.39,-0.19,8.37
4.47880482673645,-5.21,-5.9,-0.1,7.87
4.492617845535278,-5.13,-5.48,-0.63,7.53
4.498635768890381,-4.76,-5.57,-1.32,7.44
4.512629985809326,-3.67,-6.63,-1.63,7.75
4.530987739562988,-2.33,-8.12,-1.62,8.6
4.533695936203003,-0.99,-9.17,-1.05,9.28
4.538703918457031,0.33,-9.3,-0.57,9.32
4.548620939254761,1.13,-8.53,-1.1,8.67
4.558769941329956,1.49,-7.4,-2.2,7.86
4.5687339305877686,1.5,-6.75,-2.51,7.35
4.580678939819336,1.48,-6.86,-1.78,7.24
4.5905070304870605,1.72,-7.32,-0.59,7.54
4.604369878768921,2.08,-7.42,0.35,7.71
4.623945713043213,2.55,-7.13,0.74,7.6
4.626598834991455,2.82,-6.66,0.72,7.26
4.630661964416504,2.69,-6.02,0.42,6.6
4.64075493812561,2.25,-5.06,0.19,5.54
4.650782823562622,1.69,-3.83,0.08,4.18
4.660960912704468,0.96,-2.52,-0.04,2.69
4.670646905899048,0.12,-1.27,-0.06,1.27
4.685243844985962,-0.65,-0.28,0.19,0.73
4.69085693359375,-1.31,0.45,0.36,1.43
4.700821876525879,-1.84,0.96,0.39,2.11
4.727735996246338,-2.16,1.61,0.29,2.7
4.730757713317871,-2.35,2.22,0.08,3.23
4.733245849609375,-2.44,2.66,0.14,3.61
4.742722034454346,-2.39,2.89,0.42,3.77
4.751345872879028,-2.22,2.95,0.67,3.75
4.76108193397522,-1.93,2.93,0.92,3.62
4.770903825759888,-1.48,2.77,1.27,3.38
4.78121280670166,-0.83,2.56,1.66,3.16
4.7912397384643555,-0.03,2.37,1.97,3.08
4.801199913024902,0.9,2.22,2.24,3.27
4.82574987411499,1.94,2.05,2.42,3.71
4.829419851303101,3.01,1.85,2.62,4.39
4.831948757171631,4.03,1.68,2.88,5.23
4.84278678894043,5.01,1.6,3.28,6.19
4.8515777587890625,5.81,1.5,3.77,7.08
4.861546993255615,6.38,1.49,4.18,7.77
4.871532917022705,6.73,1.68,4.49,8.26
4.885581016540527,7.05,1.8,4.78,8.7
4.891520977020264,7.72,1.34,5.24,9.42
4.902061939239502,8.49,0.77,5.46,10.12
4.927835941314697,8.7,0.81,5.31,10.22
4.930628776550293,8.5,1.05,4.91,9.87
4.93317174911499,8.18,1.11,4.36,9.33
4.94167685508728,8.17,0.55,4.36,9.27
4.951758861541748,8.69,-0.38,4.72,9.89
4.961906909942627,8.85,-0.96,4.86,10.14
4.971803903579712,8.54,-1.0,4.81,9.85
4.98174786567688,7.82,-0.46,4.51,9.03
4.992060899734497,6.69,-0.06,4.36,7.98
5.002503871917725,5.54,0.07,4.37,7.05
5.028696060180664,4.55,0.1,4.37,6.3
5.031692981719971,3.8,0.02,4.44,5.84
5.034163951873779,3.22,-0.08,4.46,5.5
5.041905879974365,2.87,-0.15,4.3,5.17
5.052303791046143,2.69,-0.13,4.18,4.97
5.062411785125732,2.41,0.09,3.93,4.61
5.072147846221924,1.96,0.47,3.6,4.12
5.082242012023926,1.6,0.79,3.2,3.66
5.092244863510132,1.46,0.87,2.94,3.39
5.102766036987305,1.44,0.82,2.6,3.08
5.133724927902222,1.45,0.67,1.96,2.52
5.136580944061279,1.32,0.53,1.32,1.94
5.138996839523315,1.19,0.35,0.9,1.53
5.142214775085449,1.07,0.08,0.55,1.2
5.152294874191284,0.9,-0.25,-0.02,0.93
5.162617921829224,0.6,-0.51,-0.77,1.1
5.17250394821167,0.14,-0.74,-1.19,1.4
5.182429790496826,-0.47,-0.94,-1.43,1.77
5.192770957946777,-1.14,-1.15,-1.78,2.4
5.202404022216797,-1.7,-1.29,-1.94,2.88
5.227161884307861,-2.17,-1.49,-1.95,3.27
5.230251789093018,-2.57,-1.77,-2.01,3.71
5.232808828353882,-2.86,-2.09,-1.98,4.05
5.242849826812744,-3.03,-2.44,-1.84,4.3
5.252924919128418,-3.12,-2.9,-1.65,4.56
5.262895822525024,-3.18,-3.5,-1.45,4.94
5.273051738739014,-3.17,-4.25,-1.24,5.44
5.282717704772949,-3.2,-5.0,-0.86,5.99
5.293471813201904,-3.1,-5.77,-0.54,6.57
5.3079118728637695,-2.87,-6.52,-0.26,7.12
5.327796936035156,-2.61,-7.31,-0.13,7.76
5.331418037414551,-2.34,-8.05,0.04,8.38
5.334023952484131,-2.2,-8.49,0.17,8.77
5.34296989440918,-2.3,-8.38,0.2,8.69
5.3531389236450195,-2.56,-7.79,0.02,8.19
5.363186836242676,-2.72,-7.14,-0.04,7.64
5.373199939727783,-2.46,-7.03,0.01,7.44
5.383075714111328,-1.97,-7.53,0.14,7.78
5.393913745880127,-1.68,-8.07,0.5,8.25
5.403300762176514,-1.64,-8.26,0.78,8.45
5.429555892944336,-1.83,-7.95,0.92,8.2
5.432570934295654,-2.1,-7.19,0.97,7.55
5.435266017913818,-2.32,-6.33,1.15,6.83
5.443418025970459,-2.26,-5.71,1.24,6.26
5.453429937362671,-2.02,-5.38,1.39,5.91
5.4635210037231445,-1.61,-5.27,1.61,5.74
5.473599910736084,-1.08,-5.16,1.46,5.47
5.483325004577637,-0.59,-5.01,1.03,5.14
5.493805885314941,-0.21,-4.69,0.44,4.71
5.504155874252319,-0.08,-4.2,0.02,4.2
5.534392833709717,-0.24,-3.45,-0.09,3.45
5.537415027618408,-0.54,-2.31,-0.36,2.39
5.539748907089233,-0.94,-1.02,-0.62,1.51
5.543798923492432,-1.27,0.12,-0.72,1.46
5.560170888900757,-1.59,0.99,-0.7,1.99
5.563814878463745,-1.78,1.51,-0.58,2.4
5.573732852935791,-1.96,1.83,-0.5,2.72
5.583693027496338,-2.06,2.07,-0.39,2.94
5.594103813171387,-1.85,2.26,-0.3,2.93
5.603806018829346,-1.51,2.53,-0.44,2.97
5.633049011230469,-1.12,2.9,-0.64,3.17
5.6365838050842285,-0.69,3.21,-0.82,3.38
5.6390180587768555,-0.13,3.31,-0.9,3.43
5.644118785858154,0.57,3.23,-0.76,3.36
5.654063940048218,1.41,3.01,-0.54,3.36
5.664406776428223,2.35,2.79,-0.39,3.66
5.674330711364746,3.28,2.69,-0.32,4.25
5.6842217445373535,4.05,2.71,-0.3,4.88
5.698925018310547,4.75,2.77,-0.08,5.49
5.704259872436523,5.33,2.87,0.27,6.05
5.729461908340454,5.78,3.0,0.55,6.53
5.733425855636597,6.16,3.08,0.82,6.93
5.735915899276733,6.52,3.02,1.19,7.28
5.744427919387817,6.92,2.76,1.6,7.61
5.7544848918914795,7.31,2.44,1.9,7.93
5.7645368576049805,7.64,2.14,2.11,8.2
5.775362014770508,7.93,1.78,2.35,8.46
5.789593935012817,8.02,1.43,2.54,8.53
5.794641017913818,8.15,0.97,2.78,8.66
5.808773040771484,8.77,-0.04,3.44,9.42
5.827754020690918,9.78,-1.18,4.32,10.75
5.830612897872925,10.26,-1.55,4.66,11.37
5.834734916687012,9.56,-1.05,4.14,10.47
5.844665050506592,8.24,-0.76,3.6,9.02
5.854816913604736,6.59,-1.02,3.41,7.48
5.864700794219971,5.17,-1.25,3.38,6.3
5.874706745147705,4.12,-0.87,3.27,5.33
5.884852886199951,3.1,-0.49,3.15,4.44
5.894928932189941,2.23,-0.31,3.07,3.8
5.909170866012573,1.45,-0.15,2.9,3.24
5.927896022796631,0.77,0.02,2.51,2.62
5.9318318367004395,0.11,0.13,2.04,2.04
5.935115814208984,-0.43,0.11,1.73,1.78
5.944917917251587,-0.92,0.06,1.51,1.76
5.955002784729004,-1.47,0.22,1.18,1.89
5.965015888214111,-2.09,0.65,0.76,2.31
5.975133895874023,-2.6,1.01,0.32,2.8
5.985215902328491,-2.96,1.32,-0.03,3.24
5.996250867843628,-3.29,1.46,-0.25,3.6
6.010005950927734,-3.52,1.36,-0.22,3.78
6.031363010406494,-3.57,1.04,-0.2,3.72
6.035001754760742,-3.59,0.67,-0.29,3.66
6.037561893463135,-3.41,0.2,-0.27,3.42
6.0453667640686035,-3.04,-0.43,-0.1,3.07
6.055498838424683,-2.55,-1.09,-0.05,2.77
6.065445899963379,-2.0,-1.67,-0.26,2.61
6.075701713562012,-1.46,-2.12,-0.5,2.62
6.086280822753906,-0.86,-2.66,-0.67,2.87
6.099963903427124,-0.35,-3.31,-0.85,3.43
6.10618782043457,-0.08,-3.91,-0.9,4.01
6.130619049072266,0.1,-4.41,-0.77,4.47
6.133025884628296,0.1,-4.74,-0.67,4.78
6.135694980621338,0.0,-5.08,-0.42,5.09
6.145740985870361,-0.2,-5.56,-0.07,5.56
6.155941009521484,-0.44,-6.13,0.23,6.15
6.165771961212158,-0.68,-6.77,0.4,6.81
6.175943851470947,-0.99,-7.39,0.24,7.45
6.186522006988525,-1.31,-7.88,-0.13,7.98
6.1996660232543945,-1.79,-8.06,-0.62,8.27
6.206418037414551,-2.47,-7.77,-1.23,8.24
6.233620882034302,-3.38,-7.12,-1.8,8.08
6.236344814300537,-4.16,-6.54,-2.18,8.05
6.238781929016113,-4.2,-6.69,-2.02,8.15
6.246012926101685,-4.04,-7.19,-1.31,8.35
6.25629186630249,-4.19,-7.2,-0.76,8.36
6.266050815582275,-4.62,-6.3,-0.75,7.84
6.276021957397461,-5.23,-5.04,-1.07,7.34
6.286289930343628,-5.39,-4.36,-0.73,6.97
6.296364784240723,-4.85,-4.62,0.03,6.69
6.311180830001831,-3.95,-5.13,0.61,6.5
6.329556941986084,-2.74,-5.27,1.31,6.08
6.332239866256714,-1.3,-5.32,1.65,5.71
6.336382865905762,0.28,-5.63,1.54,5.84
6.346451759338379,1.97,-6.16,0.75,6.51
6.3564677238464355,3.22,-6.29,-0.46,7.08
6.366635799407959,3.62,-5.47,-1.34,6.69
6.376440048217773,3.35,-3.87,-1.67,5.38
6.386343955993652,2.82,-1.82,-1.97,3.89
6.397305011749268,2.13,0.21,-3.24,3.88
6.410927772521973,1.54,2.18,-4.84,5.52
6.432726860046387,1.1,3.49,-5.42,6.53
6.435488939285278,0.75,3.66,-5.26,6.45
6.437999725341797,0.59,3.29,-4.56,5.65
6.446836948394775,0.44,3.09,-3.49,4.68
6.456949710845947,0.32,3.04,-2.65,4.04
6.466744899749756,0.29,2.97,-1.74,3.45
6.476803779602051,0.4,2.83,-0.81,2.97
6.486762046813965,0.68,2.62,-0.03,2.7
6.49786376953125,1.1,2.32,0.67,2.65
6.510509014129639,1.65,1.94,1.3,2.85
6.532160758972168,2.22,1.58,1.78,3.25
6.534880876541138,2.55,1.34,2.32,3.69
6.537470817565918,2.71,1.25,3.09,4.29
6.5470147132873535,2.7,1.29,3.98,4.97
6.557337760925293,2.65,1.44,4.81,5.67
6.566810846328735,2.65,1.7,5.37,6.22
6.577165842056274,2.71,1.89,5.81,6.68
6.587098836898804,2.9,1.98,6.23,7.15
6.597212791442871,3.1,2.06,6.41,7.41
6.6080708503723145,3.31,2.15,6.51,7.61
6.6353349685668945,3.6,2.18,6.6,7.82
6.637905836105347,3.97,2.12,6.63,8.01
6.641657829284668,4.27,2.2,6.5,8.08
6.64731502532959,4.45,2.49,6.27,8.08
6.657526016235352,4.39,2.85,6.0,7.96
6.667623996734619,4.15,3.21,5.68,7.73
6.677490711212158,4.02,3.24,5.63,7.63
6.688264846801758,4.38,2.71,6.12,7.99
6.701441764831543,4.95,1.97,6.43,8.35
6.70810604095459,5.5,1.47,6.14,8.37
6.736766815185547,5.76,0.94,5.62,8.1
6.739414930343628,5.62,0.15,5.24,7.68
6.741888046264648,5.36,-0.71,5.14,7.46
6.747752904891968,5.19,-1.45,5.13,7.44
6.757786750793457,5.17,-2.2,4.94,7.48
6.767866849899292,5.23,-2.98,4.57,7.55
6.777842998504639,5.29,-3.73,4.19,7.71
6.78757381439209,5.3,-4.43,3.66,7.81
6.798121929168701,5.16,-4.95,2.8,7.67
6.808379888534546,4.74,-5.12,1.67,7.17
6.831313848495483,4.01,-4.85,0.49,6.31
6.8339457511901855,2.89,-4.22,-0.41,5.13
6.837848901748657,1.53,-3.3,-0.93,3.75
6.848042964935303,0.1,-2.41,-1.26,2.72
6.858269929885864,-1.23,-1.68,-1.67,2.66
6.867949962615967,-2.29,-1.13,-2.09,3.29
6.88195276260376,-3.33,-0.63,-2.5,4.21
6.888903856277466,-4.38,-0.09,-2.76,5.17
6.903527736663818,-5.05,0.22,-2.6,5.68
6.908169746398926,-5.3,0.07,-2.77,5.98
6.938077926635742,-5.22,-0.23,-3.3,6.17
6.9411187171936035,-5.03,-0.68,-3.27,6.03
6.9436869621276855,-4.87,-1.3,-3.35,6.05
6.948452949523926,-4.69,-1.76,-3.48,6.09
6.958377838134766,-4.51,-1.9,-3.44,5.98
6.968646049499512,-4.52,-1.97,-3.17,5.86
6.978522777557373,-4.55,-2.15,-2.54,5.63
6.988509893417358,-4.49,-2.48,-1.8,5.43
6.9987030029296875,-4.34,-3.08,-1.24,5.46
7.008551836013794,-4.03,-3.97,-0.91,5.72
7.033534049987793,-3.68,-5.09,-0.75,6.32
7.036438941955566,-3.33,-6.3,-0.56,7.14
7.03889274597168,-3.06,-7.42,-0.22,8.02
7.048955917358398,-2.86,-8.14,0.12,8.62
7.058809757232666,-2.75,-8.48,0.09,8.91
7.068792819976807,-2.77,-8.65,-0.33,9.08
7.0789878368377686,-2.85,-8.82,-0.79,9.3
7.088874816894531,-2.86,-9.13,-0.81,9.6
7.098809719085693,-2.15,-10.12,-0.86,10.38
7.109755039215088,-1.25,-11.37,-1.07,11.48
7.1368749141693115,-0.51,-11.69,-0.24,11.7
7.139482021331787,-0.43,-10.58,0.54,10.6
7.141973972320557,-1.05,-8.77,0.4,8.84
7.148983955383301,-1.36,-7.49,0.18,7.61
7.159284830093384,-1.11,-7.05,0.17,7.13
7.169239044189453,-0.5,-7.15,-0.06,7.16
7.179160833358765,0.24,-7.37,0.03,7.37
7.1893310546875,0.97,-7.35,0.39,7.42
7.1993327140808105,1.5,-7.05,0.46,7.22
7.209138870239258,1.72,-6.47,0.44,6.7
7.235375881195068,1.7,-5.5,0.13,5.75
7.237990856170654,1.57,-4.18,-0.29,4.47
7.241880893707275,1.26,-2.71,-0.76,3.08
7.249352931976318,0.76,-1.32,-0.99,1.81
7.259507894515991,0.33,-0.04,-1.08,1.13
7.26946496963501,-0.13,1.25,-1.0,1.6
7.279458999633789,-0.46,2.27,-1.0,2.52
7.2930827140808105,-0.56,2.94,-1.0,3.15
7.300206899642944,-0.46,3.42,-1.05,3.6
7.313529014587402,-0.09,3.69,-0.95,3.81
7.333069801330566,0.55,3.59,-0.6,3.68
7.335888862609863,1.21,3.26,0.07,3.47
7.33968186378479,1.76,2.79,0.94,3.43
7.34972882270813,2.56,2.16,0.99,3.49
7.3599278926849365,3.56,1.76,0.54,4.0
7.369906902313232,4.13,1.85,0.63,4.56
7.380105018615723,4.48,2.14,1.16,5.09
7.389765739440918,4.72,2.43,1.77,5.59
7.40040397644043,4.93,2.88,2.08,6.07
7.409972906112671,5.08,3.6,2.02,6.54
7.435212850570679,5.18,4.32,1.94,7.01
7.437866926193237,5.22,4.78,1.92,7.33
7.440456867218018,5.21,4.97,2.04,7.48
7.450065851211548,5.2,4.85,2.38,7.49
7.460172891616821,5.25,4.61,2.74,7.5
7.470021724700928,5.43,4.39,3.0,7.59
7.480358839035034,5.81,4.1,3.07,7.74
7.490163803100586,6.28,3.71,2.99,7.88
7.500229835510254,6.7,3.31,2.8,7.98
7.514636039733887,7.07,2.95,2.64,8.1
7.536249876022339,7.38,2.25,2.62,8.14
7.538850784301758,7.84,0.85,2.93,8.41
7.541403770446777,8.68,-0.78,3.31,9.32
7.550356864929199,9.95,-1.69,3.38,10.64
7.5604729652404785,10.99,-1.41,2.86,11.44
7.570335865020752,11.34,-0.76,1.84,11.51
7.580445766448975,11.37,-0.87,1.14,11.46
7.590510845184326,10.62,-1.82,1.62,10.89
7.600713729858398,9.62,-3.07,2.27,10.34
7.61077094078064,8.73,-3.84,2.3,9.81
7.637933731079102,7.69,-3.76,1.88,8.76
7.640580892562866,6.49,-3.41,1.58,7.49
7.643099784851074,5.21,-3.2,1.4,6.27
7.650613784790039,3.93,-2.91,1.3,5.05
7.660927772521973,2.66,-2.44,1.29,3.83
7.670750856399536,1.41,-1.87,1.11,2.59
7.6806440353393555,0.35,-1.34,0.68,1.54
7.691094875335693,-0.62,-0.88,0.23,1.1
7.700830936431885,-1.51,-0.45,-0.06,1.57
7.715347766876221,-2.34,-0.12,-0.32,2.36
7.734439849853516,-3.19,0.18,-0.52,3.23
7.7371087074279785,-4.06,0.37,-0.44,4.1
7.740964889526367,-4.95,0.23,-0.17,4.95
7.75117301940918,-5.87,0.02,-0.04,5.87
7.761100769042969,-6.82,-0.09,0.14,6.82
7.771119832992554,-7.7,-0.1,0.34,7.7
7.781174898147583,-8.42,0.14,0.46,8.43
7.791173934936523,-8.91,0.41,0.64,8.94
7.802073001861572,-8.9,0.77,0.73,8.96
7.814874887466431,-8.4,1.0,0.84,8.5
7.836122989654541,-7.58,0.48,1.2,7.68
7.83876895904541,-6.58,-0.51,1.62,6.79
7.841330051422119,-5.62,-1.45,1.83,6.08
7.8513288497924805,-4.58,-2.16,1.56,5.29
7.861412048339844,-3.54,-2.8,1.32,4.7
7.871176719665527,-2.71,-3.58,1.4,4.7
7.881760835647583,-1.94,-4.33,1.56,4.99
7.891664981842041,-1.21,-4.84,1.67,5.26
7.901744842529297,-0.6,-5.33,1.78,5.65
7.9115519523620605,-0.12,-5.67,1.97,6.0
7.939260959625244,0.06,-5.71,2.21,6.12
7.942097902297974,-0.12,-5.38,2.54,5.95
7.944633960723877,-0.55,-4.86,2.92,5.69
7.951686859130859,-0.92,-4.62,3.17,5.67
7.961859941482544,-0.88,-5.66,3.14,6.53
7.9718017578125,-0.42,-7.63,3.1,8.24
7.982083797454834,0.23,-8.84,3.4,9.47
7.992167949676514,0.62,-8.63,3.79,9.44
8.001844882965088,0.4,-7.33,4.08,8.39
8.01188588142395,-0.3,-5.81,4.01,7.06
8.037426948547363,-0.66,-5.07,4.08,6.54
8.040034770965576,-0.63,-5.15,4.1,6.61
8.042730808258057,-0.29,-5.14,3.66,6.31
8.050179958343506,0.21,-4.85,2.6,5.5
8.060351848602295,0.77,-4.61,1.21,4.82
8.070461750030518,1.05,-4.12,-0.01,4.25
8.080368995666504,0.83,-3.3,-0.74,3.48
8.090402841567993,0.28,-2.21,-1.06,2.46
8.100812911987305,-0.41,-0.9,-1.33,1.65
8.110672950744629,-1.02,0.52,-1.56,1.93
8.125359058380127,-1.62,1.82,-1.72,2.98
8.143119812011719,-2.1,2.76,-1.86,3.93
8.146764755249023,-2.33,3.32,-2.13,4.58
8.150686740875244,-2.41,3.71,-2.51,5.08
8.16065502166748,-2.38,3.89,-2.85,5.37
8.170721054077148,-2.24,3.96,-3.1,5.5
8.18093490600586,-2.16,4.05,-3.4,5.71
8.190690040588379,-1.93,3.96,-3.34,5.52
8.20649790763855,-1.72,3.67,-3.11,5.1
8.210896015167236,-1.49,3.35,-2.75,4.58
8.225188732147217,-1.15,2.95,-2.3,3.91
8.243327856063843,-0.77,2.73,-1.95,3.44
8.246003866195679,-0.37,2.95,-1.63,3.39
8.250876903533936,0.14,3.29,-1.29,3.53
8.260990858078003,0.69,3.52,-0.77,3.66
8.270910739898682,1.35,3.43,-0.27,3.69
8.281291007995605,2.23,2.86,0.08,3.62
8.291071891784668,3.31,1.86,0.4,3.81
8.301216840744019,4.45,0.81,0.43,4.54
8.31180477142334,5.71,-0.22,0.47,5.73
8.321769714355469,7.01,-1.23,0.59,7.14
8.339364051818848,8.24,-2.11,0.75,8.53
8.341935873031616,9.35,-2.63,0.99,9.76
8.351240873336792,10.19,-2.74,1.08,10.6
8.36132001876831,11.0,-3.02,0.94,11.44
8.371290922164917,11.93,-3.98,0.71,12.59
8.381484985351562,12.51,-4.61,0.64,13.34
8.391424894332886,11.96,-3.48,0.5,12.46
8.401930809020996,10.37,-0.81,-0.25,10.4
8.411623001098633,8.73,1.48,-1.17,8.93
8.422159910202026,7.33,2.43,-1.41,7.84
8.439507007598877,6.0,2.03,-1.12,6.43
8.443286895751953,4.82,0.87,-1.1,5.01
8.451472759246826,3.99,-0.57,-1.16,4.19
8.461833000183105,3.52,-1.62,-0.99,3.99
8.471766948699951,3.2,-2.25,-0.95,4.02
8.481774806976318,2.87,-2.33,-0.92,3.8
8.492508888244629,2.4,-1.85,-0.91,3.16
8.50596570968628,1.83,-1.14,-0.89,2.33
8.512592792510986,1.17,-0.32,-0.78,1.44
8.526123046875,0.44,0.48,-0.51,0.82
8.542730808258057,-0.21,1.02,-0.22,1.06
8.545417785644531,-0.85,1.28,0.05,1.53
8.551866054534912,-1.45,1.37,0.26,2.01
8.5621337890625,-2.11,1.35,0.25,2.51
8.57209587097168,-2.65,1.42,0.62,3.06
8.581990718841553,-3.17,1.39,0.77,3.54
8.594071865081787,-3.68,1.32,0.76,3.98
8.604625940322876,-4.14,1.26,0.8,4.4
8.618374824523926,-4.56,1.05,0.57,4.71
8.637557029724121,-4.92,0.82,0.46,5.0
8.641267776489258,-5.25,0.59,0.4,5.29
8.643953800201416,-5.56,0.35,0.1,5.57
8.654130935668945,-5.76,0.19,0.11,5.76
8.664357900619507,-5.94,-0.07,0.02,5.94
8.674005031585693,-6.05,-0.51,0.05,6.07
8.684309959411621,-5.98,-1.12,0.22,6.08
8.694210052490234,-5.82,-1.72,0.33,6.07
8.704535961151123,-5.43,-2.43,0.56,5.97
8.719748973846436,-4.79,-3.33,0.75,5.88
8.737803936004639,-4.16,-4.18,0.8,5.95
8.741583824157715,-3.64,-4.78,0.62,6.04
8.744366884231567,-3.07,-5.29,0.45,6.13
8.754273891448975,-2.49,-5.93,0.49,6.45
8.76462173461914,-2.02,-6.63,0.5,6.94
8.774388790130615,-1.79,-6.81,0.33,7.04
8.784296035766602,-1.75,-6.39,-0.25,6.63
8.7947359085083,-1.71,-5.7,-1.22,6.07
8.805229902267456,-1.74,-5.09,-2.25,5.83
8.81965184211731,-1.53,-5.36,-3.13,6.39
8.839128017425537,-0.96,-6.76,-2.75,7.36
8.841839790344238,-0.41,-8.46,-1.13,8.54
8.84456491470337,-0.27,-8.86,0.04,8.86
8.854767799377441,-0.56,-7.51,-0.22,7.53
8.864720821380615,-0.89,-5.77,-1.04,5.93
8.875071048736572,-0.81,-5.19,-1.9,5.58
8.884793758392334,-0.23,-5.75,-2.47,6.26
8.894807815551758,0.77,-6.8,-2.46,7.27
8.904932022094727,1.88,-7.76,-1.98,8.22
8.915130853652954,2.46,-8.04,-1.49,8.53
8.945278882980347,2.2,-7.43,-1.12,7.82
8.948461055755615,1.48,-6.26,-0.84,6.48
8.950925827026367,0.67,-4.96,-0.38,5.01
8.955060958862305,-0.11,-3.55,0.14,3.55
8.965352058410645,-0.81,-2.21,0.59,2.42
8.97519588470459,-1.38,-1.22,1.17,2.18
8.985050916671753,-1.85,-0.6,1.73,2.6
8.995296001434326,-2.2,-0.15,2.08,3.03
9.005144834518433,-2.36,0.31,2.12,3.18
9.015722751617432,-2.43,0.86,1.85,3.17
9.043247938156128,-2.42,1.39,1.53,3.18
9.046193838119507,-2.35,1.82,1.44,3.3
9.048768043518066,-2.25,2.13,1.51,3.44
9.055349826812744,-2.14,2.38,1.63,3.59
9.065258026123047,-1.93,2.51,1.78,3.63
9.075616836547852,-1.61,2.57,1.86,3.55
9.085326910018921,-1.17,2.57,1.79,3.34
9.095489978790283,-0.59,2.51,1.75,3.11
9.105717897415161,0.03,2.43,1.73,2.98
9.116285800933838,0.62,2.38,1.75,3.01
9.146148920059204,1.22,2.27,1.75,3.11
9.14964485168457,1.78,2.15,1.91,3.38
9.152146816253662,2.33,2.0,2.12,3.73
9.155521869659424,2.96,1.75,2.26,4.11
9.165730953216553,3.53,1.45,2.4,4.5
9.175992012023926,4.12,1.18,2.56,4.99
9.185708045959473,4.96,0.73,2.38,5.54
9.195762872695923,6.32,-0.08,1.88,6.59
9.206629753112793,8.14,-1.08,1.09,8.28
9.22069501876831,9.69,-2.07,0.48,9.92
9.23943281173706,10.64,-2.42,0.17,10.91
9.243444919586182,11.01,-1.81,0.61,11.17
9.246150970458984,10.99,-0.78,1.48,11.11
9.255674839019775,10.99,0.21,2.81,11.34
9.26609182357788,10.97,1.15,3.93,11.7
9.276020050048828,10.84,2.33,4.53,11.97
9.286303043365479,10.9,3.66,4.7,12.42
9.296199798583984,10.76,4.74,4.31,12.52
9.306838989257812,10.25,5.35,3.92,12.2
9.316328048706055,10.12,4.86,3.89,11.88
9.343997955322266,10.54,3.81,3.94,11.87
9.346848964691162,10.65,3.85,3.7,11.91
9.349347829818726,10.08,4.84,2.98,11.57
9.356381893157959,9.27,5.12,2.86,10.96
9.366760730743408,8.5,3.98,3.08,9.87
9.376473903656006,8.04,2.39,3.3,9.01
9.386399745941162,7.39,1.24,3.32,8.19
9.396512985229492,6.67,-0.24,3.62,7.59
9.406477928161621,6.32,-3.13,3.99,8.1
9.422438859939575,6.01,-5.45,4.4,9.22
9.439284801483154,6.05,-7.04,4.53,10.32
9.4423508644104,6.39,-8.59,4.36,11.55
9.446769714355469,6.24,-9.42,3.98,11.97
9.456750869750977,5.51,-9.18,3.45,11.24
9.466689825057983,4.27,-8.43,3.03,9.92
9.47685194015503,2.52,-7.51,3.0,8.47
9.486763000488281,0.66,-6.62,3.0,7.29
9.49672794342041,-1.24,-5.79,2.93,6.6
9.507668018341064,-3.03,-5.23,2.72,6.62
9.521347045898438,-4.46,-5.01,2.44,7.13
9.542842864990234,-5.61,-4.94,1.92,7.71
9.545894861221313,-6.34,-4.84,1.64,8.14
9.54840898513794,-7.0,-4.52,1.29,8.43
9.556966781616211,-7.61,-4.11,0.73,8.67
9.567157745361328,-7.83,-4.54,0.18,9.05
9.577286720275879,-7.69,-5.94,-0.45,9.72
9.587065935134888,-7.48,-7.29,-0.73,10.47
9.59713888168335,-6.93,-8.46,-0.75,10.96
9.607378005981445,-6.11,-9.47,-0.73,11.29
9.617304801940918,-5.34,-9.94,-1.11,11.33
9.644540786743164,-4.65,-10.22,-1.68,11.35
9.648201942443848,-3.9,-10.64,-2.01,11.5
9.65073299407959,-3.38,-11.27,-2.27,11.98
9.657221794128418,-3.59,-11.45,-2.59,12.27
9.66758680343628,-4.07,-11.07,-2.69,12.09
9.677580833435059,-4.73,-10.79,-2.86,12.12
9.687542915344238,-5.48,-10.22,-2.7,11.9
9.697651863098145,-6.0,-9.46,-2.46,11.46
9.707390785217285,-6.37,-8.62,-2.55,11.01
9.723268032073975,-6.82,-7.6,-2.88,10.6
9.740717887878418,-7.07,-6.4,-2.97,9.98
9.743820905685425,-7.05,-5.42,-3.04,9.39
9.747730731964111,-6.62,-5.24,-3.22,9.03
9.757644891738892,-5.55,-6.35,-3.16,9.0
9.76803970336914,-4.32,-7.57,-2.02,8.94
9.777942895889282,-3.18,-7.93,-0.49,8.55
9.787649869918823,-2.05,-7.46,0.16,7.73
9.798038005828857,-1.07,-6.71,-0.45,6.8
9.808570861816406,-0.12,-6.91,-1.45,7.06
9.821473836898804,1.53,-8.97,-1.47,9.21
9.84407377243042,4.01,-11.59,-0.89,12.29
9.847198009490967,6.58,-13.22,-0.55,14.77
9.849844932556152,9.11,-13.41,-0.13,16.21
9.858134746551514,11.1,-12.39,0.28,16.63
9.868427753448486,11.96,-10.43,0.62,15.88
9.878283977508545,11.57,-7.77,1.24,13.99
9.888004779815674,10.59,-5.09,1.83,11.89
9.898181915283203,9.53,-2.61,2.4,10.16
9.908252716064453,8.34,-0.54,2.45,8.7
9.918124914169312,7.42,1.02,1.69,7.67
9.94498085975647,6.62,2.41,0.4,7.05
9.948644876480103,5.61,3.69,-0.61,6.74
9.9511559009552,4.4,4.76,-0.8,6.53
9.958920001983643,3.13,5.45,-0.39,6.29
9.9684579372406,2.05,5.97,0.12,6.31
9.97844386100769,1.3,6.52,0.45,6.66
9.988321781158447,0.94,6.94,0.73,7.04
9.9984769821167,0.87,7.04,0.97,7.15
10.012374877929688,1.05,6.96,1.23,7.14
10.019580841064453,1.31,6.92,1.65,7.23
10.046849727630615,1.69,6.97,2.2,7.5
10.04980182647705,2.08,7.0,2.83,7.83
10.052262783050537,2.71,6.94,3.4,8.18
10.058687925338745,3.6,6.76,3.57,8.44
10.068925857543945,4.65,6.38,3.65,8.69
10.078827857971191,5.82,5.79,3.77,9.03
10.088796854019165,6.83,5.13,3.6,9.26
10.098983764648438,7.84,4.46,3.34,9.61
10.108825922012329,8.86,3.82,3.19,10.16
10.121485710144043,9.67,3.34,2.95,10.64
10.142444849014282,10.22,3.01,2.72,10.99
10.145342826843262,10.37,2.86,2.58,11.06
10.148973941802979,10.01,2.8,2.23,10.63
10.158822059631348,9.15,2.74,1.82,9.72
10.169116020202637,8.38,2.27,1.67,8.84
10.179347038269043,8.51,0.85,2.2,8.83
10.189153909683228,8.96,-0.75,2.76,9.4
10.205162048339844,8.95,-1.08,2.65,9.39
10.209336757659912,8.17,-0.64,2.18,8.48
10.219851016998291,7.19,-0.88,2.09,7.53
10.242448806762695,6.42,-1.9,2.58,7.17
10.245122909545898,5.75,-3.22,2.98,7.23
10.24925684928894,5.12,-4.38,3.03,7.38
10.259370803833008,4.45,-5.04,2.84,7.29
10.269515037536621,3.73,-5.13,2.51,6.82
10.279571056365967,2.84,-4.75,2.16,5.94
10.28944993019104,1.96,-4.11,1.82,4.9
10.300089836120605,1.21,-3.55,1.58,4.06
10.31018590927124,0.47,-3.16,1.23,3.42
10.324363708496094,-0.12,-2.81,0.74,2.9
10.343369007110596,-0.68,-2.69,0.45,2.81
10.346357822418213,-1.08,-2.63,0.21,2.85
10.349488735198975,-1.39,-2.6,-0.26,2.95
10.359652996063232,-1.67,-2.46,-0.83,3.08
10.36977481842041,-1.82,-2.26,-1.22,3.14
10.379828929901123,-1.94,-2.26,-1.51,3.33
10.389713764190674,-2.04,-2.51,-1.36,3.5
10.39973783493042,-2.22,-2.84,-1.04,3.75
10.410729885101318,-2.43,-3.01,-0.63,3.91
10.424750804901123,-2.65,-3.06,-0.16,4.05
10.445399761199951,-2.84,-3.15,0.2,4.24
10.448380947113037,-2.97,-3.26,0.63,4.45
10.451066017150879,-3.02,-3.46,1.08,4.71
10.459945917129517,-3.12,-3.85,1.52,5.18
10.470095872879028,-3.43,-4.24,1.88,5.76
10.4803147315979,-3.73,-4.42,2.1,6.15
10.490113735198975,-3.9,-4.54,2.5,6.48
10.50014591217041,-4.06,-4.78,2.83,6.88
10.510210990905762,-4.26,-5.05,2.99,7.25
10.520802021026611,-4.45,-5.28,3.29,7.64
10.54842472076416,-4.56,-5.44,3.65,7.98
10.552199840545654,-4.67,-5.67,3.96,8.34
10.554673910140991,-4.69,-6.01,4.27,8.73
10.560341835021973,-4.7,-6.53,4.2,9.07
10.570727825164795,-4.68,-6.88,4.04,9.24
10.580700874328613,-4.74,-7.09,3.62,9.26
10.590520858764648,-4.89,-7.27,2.76,9.18
10.600433826446533,-4.98,-7.44,1.59,9.09
10.61554479598999,-4.99,-7.78,0.94,9.29
10.621013879776001,-5.14,-8.0,1.88,9.69
10.649207830429077,-5.5,-7.91,3.6,10.28
10.652894020080566,-5.93,-7.2,4.6,10.4
10.655319929122925,-6.11,-5.56,4.08,9.21
10.660731792449951,-5.38,-4.39,2.92,7.53
10.67059588432312,-4.66,-4.05,1.73,6.41
10.680872917175293,-3.91,-4.68,0.26,6.1
10.690776824951172,-2.97,-6.16,-0.56,6.86
10.700791835784912,-2.23,-7.35,-1.02,7.74
10.716079711914062,-1.72,-7.39,-1.75,7.78
10.720842838287354,-1.45,-6.3,-2.15,6.81
10.746137857437134,-1.56,-4.74,-2.25,5.47
10.749192714691162,-1.72,-3.46,-2.09,4.39
10.751739025115967,-1.71,-2.68,-1.78,3.64
10.760925769805908,-1.47,-2.23,-1.41,3.02
10.771030902862549,-1.02,-1.89,-1.04,2.38
10.781033992767334,-0.65,-1.43,-1.04,1.88
10.79147982597351,-0.3,-0.68,-1.13,1.35
10.801139831542969,0.2,0.1,-1.31,1.32
10.811149835586548,0.88,0.66,-1.32,1.71
10.82546591758728,1.63,0.9,-1.27,2.25
10.844344854354858,2.26,0.89,-0.94,2.6
10.847580909729004,2.9,0.65,-0.48,3.01
10.851382732391357,3.61,0.24,-0.02,3.61
10.861351013183594,4.23,-0.09,0.56,4.26
10.871307849884033,4.83,-0.31,1.02,4.94
10.881357908248901,5.51,-0.31,1.17,5.64
10.89144492149353,6.12,-0.46,1.63,6.35
10.90149974822998,6.72,-0.69,1.76,6.98
10.91215705871582,7.32,-0.78,2.0,7.62
10.925889015197754,7.98,-1.05,2.49,8.42
10.947767734527588,8.57,-1.5,3.11,9.23
10.951424837112427,8.99,-1.8,3.58,9.84
10.953911781311035,9.3,-1.66,4.02,10.26
10.961566925048828,9.49,-1.17,4.31,10.48
10.971896886825562,9.53,-0.49,4.35,10.48
10.981736898422241,9.49,0.29,4.19,10.37
10.991891860961914,9.54,0.59,3.78,10.27
11.002854824066162,9.92,-0.51,3.12,10.41
11.015768051147461,10.69,-3.18,2.42,11.41
11.02192497253418,11.69,-5.99,1.88,13.26
11.047976016998291,12.54,-6.73,1.17,14.27
11.05070972442627,12.75,-5.06,0.27,13.72
11.053370952606201,11.93,-3.1,-0.18,12.32
11.062028884887695,10.39,-2.58,0.37,10.71
11.072149753570557,8.83,-3.53,1.12,9.57
11.08247995376587,7.43,-4.75,1.49,8.94
11.092137813568115,6.39,-5.5,1.22,8.51
11.102386951446533,5.37,-5.39,0.86,7.65
11.115978717803955,4.47,-4.76,0.78,6.57
11.122077941894531,3.52,-3.87,0.99,5.32
11.148668766021729,2.42,-2.86,1.41,4.0
11.151418924331665,1.26,-1.97,1.9,3.01
11.153910875320435,0.31,-1.28,2.37,2.71
11.162487983703613,-0.41,-0.66,2.31,2.43
11.172568798065186,-0.95,-0.07,1.75,1.99
11.182502746582031,-1.44,0.3,1.12,1.84
11.192699909210205,-1.8,0.59,0.47,1.95
11.202674865722656,-2.11,1.03,0.01,2.34
11.212535858154297,-2.32,1.12,-0.52,2.62
11.22795295715332,-2.39,0.92,-1.03,2.76
11.245625972747803,-2.49,0.65,-1.21,2.84
11.248302936553955,-2.73,0.31,-1.18,2.99
11.252626895904541,-3.01,-0.04,-1.12,3.21
11.26274299621582,-3.28,-0.36,-1.14,3.49
11.272892951965332,-3.52,-0.71,-1.14,3.76
11.282757759094238,-3.79,-1.21,-1.15,4.14
11.292823791503906,-4.07,-1.77,-1.0,4.54
11.302809715270996,-4.36,-2.61,-0.77,5.13
11.31701374053955,-4.59,-3.54,-0.6,5.82
11.32292890548706,-4.72,-4.27,-0.61,6.39
11.34795093536377,-4.83,-4.84,-0.7,6.87
11.350677967071533,-4.88,-5.38,-0.86,7.31
11.35328197479248,-4.79,-6.27,-0.93,7.94
11.363059997558594,-4.7,-7.4,-0.99,8.82
11.373250007629395,-4.68,-8.18,-0.94,9.47
11.383156776428223,-4.81,-8.39,-1.1,9.73
11.393199920654297,-5.15,-7.97,-1.21,9.56
11.403159856796265,-5.65,-7.01,-1.17,9.07
11.41346788406372,-6.27,-5.83,-1.26,8.65
11.423943042755127,-6.79,-5.07,-1.81,8.66
11.446776866912842,-6.93,-5.74,-2.24,9.27
11.449487924575806,-7.0,-7.42,-1.8,10.35
11.453358888626099,-7.27,-8.45,-0.58,11.16
11.463572978973389,-7.61,-7.89,0.77,10.98
11.473450899124146,-7.8,-6.16,1.54,10.05
11.483548879623413,-7.69,-4.53,1.63,9.07
11.493526935577393,-7.18,-3.5,1.3,8.09
11.508707046508789,-6.32,-3.06,0.8,7.06
11.513685703277588,-5.28,-3.29,-0.03,6.22
11.523997783660889,-4.04,-3.92,-1.3,5.77
11.554306983947754,-2.81,-4.24,-2.68,5.74
11.557027816772461,-1.9,-4.24,-3.49,5.81
11.559385776519775,-1.39,-4.27,-3.48,5.68
11.563910007476807,-1.19,-4.17,-2.82,5.17
11.5739107131958,-1.21,-3.65,-2.02,4.34
11.58402681350708,-1.22,-2.83,-1.42,3.39
11.593812942504883,-1.06,-2.09,-1.08,2.58
11.603728771209717,-0.76,-1.29,-0.97,1.78
11.61404275894165,-0.35,-0.61,-0.97,1.19
11.624616861343384,0.0,-0.14,-0.82,0.83
11.647081851959229,0.3,0.25,-0.71,0.81
11.649781703948975,0.56,0.64,-0.66,1.07
11.653827905654907,0.81,0.97,-0.61,1.4
11.66396689414978,1.06,1.11,-0.53,1.62
11.673924922943115,1.31,0.93,-0.27,1.62
11.684067726135254,1.59,0.6,-0.07,1.7
11.694317817687988,1.92,0.29,-0.17,1.94
11.703941822052002,2.31,0.26,-0.38,2.35
11.714905738830566,2.76,0.32,-0.65,2.85
11.729148864746094,3.24,0.35,-0.9,3.38
11.748743057250977,3.71,0.32,-1.0,3.85
11.75138783454895,4.1,0.29,-0.95,4.21
11.754296779632568,4.43,0.31,-0.75,4.5
11.764323711395264,4.71,0.37,-0.49,4.74
11.774860858917236,4.92,0.61,-0.27,4.96
11.784308910369873,5.13,0.91,-0.02,5.21
11.794436931610107,5.38,0.98,0.19,5.47
11.804269790649414,5.65,0.75,0.34,5.7
11.814630031585693,5.95,0.37,0.41,5.97
11.82917070388794,6.28,-0.08,0.58,6.3
11.848219871520996,6.63,-0.53,0.7,6.68
11.851034879684448,6.89,-0.41,0.83,6.95
11.854551792144775,6.96,0.25,0.92,7.02
11.864601850509644,6.92,0.8,0.95,7.03
11.874904870986938,7.03,0.39,0.96,7.1
11.884704828262329,7.44,-0.94,0.97,7.56
11.894752979278564,7.81,-1.99,1.1,8.13
11.904741764068604,8.26,-2.19,1.08,8.61
11.915729999542236,8.78,-1.74,0.8,8.98
11.928884029388428,9.17,-1.67,0.59,9.33
11.950703859329224,9.29,-2.22,0.72,9.57
11.953328847885132,9.16,-3.11,1.0,9.72
11.95576786994934,8.85,-4.17,1.03,9.83
11.96482801437378,8.38,-5.27,0.93,9.94
11.975831985473633,7.91,-6.02,0.67,9.96
11.985004901885986,7.25,-5.96,0.36,9.39
11.995151996612549,6.41,-5.16,0.1,8.22
12.005078792572021,5.32,-3.97,0.07,6.63
12.020481824874878,4.12,-2.78,0.2,4.97
12.02555799484253,3.01,-1.59,0.42,3.42
12.033352851867676,1.94,-0.51,0.47,2.06
12.051121711730957,0.99,0.3,0.41,1.11
12.054016828536987,0.16,0.82,0.5,0.97
12.063611030578613,-0.59,1.16,0.53,1.4
12.073883056640625,-1.25,1.39,0.48,1.93
12.083806037902832,-1.81,1.42,0.35,2.32
12.093881845474243,-2.3,1.21,0.3,2.61
12.104156970977783,-2.72,0.79,0.25,2.84
12.113772869110107,-3.08,0.21,0.29,3.1
12.124450922012329,-3.33,-0.41,0.31,3.36
12.133887767791748,-3.52,-0.88,0.26,3.63
12.149853706359863,-3.74,-1.34,0.12,3.97
12.153884887695312,-3.89,-1.87,-0.01,4.31
12.163891792297363,-3.89,-2.58,-0.04,4.66
12.174011707305908,-3.72,-3.3,-0.19,4.97
12.183965921401978,-3.57,-3.73,-0.56,5.19
12.1940598487854,-3.42,-4.05,-0.94,5.38
12.207619905471802,-3.2,-4.54,-1.12,5.66
12.214911937713623,-3.06,-5.07,-1.09,6.02
12.227988719940186,-3.02,-5.41,-1.12,6.29
12.234910011291504,-2.96,-5.66,-1.22,6.5
12.25316572189331,-3.01,-5.86,-1.37,6.72
12.256994724273682,-3.13,-5.98,-1.59,6.93
12.264169931411743,-3.17,-5.97,-1.79,6.99
12.274281978607178,-3.29,-5.89,-1.96,7.02
12.284226894378662,-3.46,-6.02,-2.17,7.27
12.294599056243896,-3.43,-6.92,-2.49,8.11
12.305042743682861,-3.26,-8.62,-2.4,9.52
12.318896770477295,-3.45,-9.63,-1.34,10.31
12.325096845626831,-4.16,-8.39,0.12,9.36
12.334552764892578,-5.04,-5.48,0.93,7.5
12.351966857910156,-5.72,-3.06,0.69,6.52
12.354650974273682,-6.11,-1.78,-0.05,6.36
12.364563941955566,-6.08,-1.72,-0.69,6.35
12.374742031097412,-5.89,-2.71,-1.06,6.56
12.38449478149414,-5.14,-3.73,-1.66,6.56
12.394890785217285,-4.16,-4.1,-2.38,6.3
12.404773712158203,-3.13,-4.28,-2.81,6.0
12.415177822113037,-2.36,-4.49,-2.8,5.79
12.429411888122559,-2.06,-4.31,-2.34,5.31
12.434924840927124,-2.01,-3.87,-1.99,4.79
12.451180934906006,-1.84,-3.2,-2.05,4.22
12.455014705657959,-1.52,-2.4,-2.44,3.74
12.46487283706665,-1.11,-1.79,-2.8,3.5
12.475255966186523,-0.96,-1.18,-2.62,3.02
12.484938859939575,-1.12,-0.65,-2.36,2.69
12.49512004852295,-1.33,-0.05,-1.85,2.27
12.505404949188232,-1.55,0.6,-1.42,2.18
12.515837907791138,-1.58,1.25,-1.1,2.29
12.53080701828003,-1.49,1.65,-0.94,2.41
12.536067962646484,-1.25,1.88,-0.93,2.44
12.551731824874878,-0.83,2.02,-1.19,2.48
12.555140972137451,-0.3,2.04,-1.26,2.41
12.565177917480469,0.22,1.91,-1.22,2.27
12.575300931930542,0.75,1.8,-1.13,2.25
12.58988904953003,1.26,1.74,-1.02,2.37
12.59965181350708,1.86,1.67,-0.9,2.65
12.609818935394287,2.51,1.53,-0.87,3.06
12.620304822921753,3.15,1.37,-0.86,3.54
12.633450031280518,3.84,1.27,-0.81,4.12
12.65576171875,4.61,1.14,-0.9,4.83
12.658647060394287,5.39,0.77,-0.95,5.52
12.661231994628906,6.07,0.36,-0.88,6.14
12.669785022735596,6.61,0.08,-0.74,6.65
12.679935932159424,7.12,-0.21,-0.53,7.14
12.69010591506958,7.54,-0.52,-0.29,7.56
12.699960708618164,7.85,-0.69,-0.02,7.88
12.710075855255127,7.95,-0.55,0.3,7.97
12.720286846160889,7.7,-0.02,0.62,7.72
12.730169773101807,7.27,0.66,1.0,7.36
12.75927186012268,6.89,1.03,1.36,7.09
12.762948989868164,6.9,0.46,1.5,7.07
12.765432834625244,7.32,-0.6,1.51,7.49
12.770042896270752,7.74,-0.83,1.65,7.95
12.780336856842041,7.88,-0.12,1.79,8.08
12.790189743041992,7.73,0.55,1.86,7.96
12.800489902496338,7.34,0.43,2.09,7.64
12.810300827026367,7.1,-0.49,2.22,7.45
12.820673942565918,7.15,-1.88,1.96,7.64
12.830667972564697,7.15,-3.26,1.54,8.0
12.859097957611084,6.86,-4.15,1.35,8.13
12.862037897109985,6.48,-4.29,1.42,7.9
12.864527940750122,5.86,-3.94,1.54,7.22
12.870398998260498,5.19,-3.55,1.82,6.54
12.880589008331299,4.52,-3.29,2.22,6.01
12.8904390335083,3.72,-2.91,2.44,5.31
12.900691986083984,3.0,-2.32,2.46,4.52
12.910642862319946,2.45,-1.68,2.19,3.69
12.92074990272522,1.9,-0.99,1.83,2.81
12.930686950683594,1.33,-0.37,1.57,2.09
12.956259727478027,0.71,0.18,1.52,1.68
12.959135055541992,0.09,0.67,1.5,1.64
12.961606979370117,-0.43,1.01,1.36,1.74
12.97071385383606,-0.86,1.19,1.25,1.92
12.981058835983276,-1.23,1.18,1.16,2.06
12.991016864776611,-1.54,0.99,0.99,2.08
13.001280784606934,-1.75,0.59,0.73,1.98
13.011051893234253,-1.87,-0.04,0.45,1.92
13.022738933563232,-1.98,-0.86,0.0,2.15
13.03499984741211,-2.26,-1.82,-0.49,2.94
13.054086923599243,-2.46,-2.83,-0.42,3.77
13.057325839996338,-2.49,-3.63,-0.12,4.4
13.061355829238892,-2.52,-4.16,-0.26,4.87
13.071308851242065,-2.63,-4.48,-0.37,5.2
13.081289768218994,-2.74,-4.66,-0.49,5.42
13.091241836547852,-2.91,-4.76,-0.48,5.59
13.101496934890747,-3.01,-4.83,-0.44,5.7
13.111392974853516,-3.07,-4.94,-0.63,5.85
13.121984958648682,-3.19,-5.2,-0.89,6.16
13.131375789642334,-3.13,-5.63,-1.21,6.55
13.158979892730713,-3.06,-6.13,-1.55,7.02
13.162691831588745,-3.09,-6.44,-1.77,7.35
13.165205955505371,-3.12,-6.53,-1.96,7.49
13.171490907669067,-3.22,-6.37,-2.2,7.46
13.18195390701294,-3.41,-6.08,-2.45,7.38
13.191736936569214,-3.44,-6.34,-2.84,7.75
13.201580047607422,-3.24,-7.39,-3.08,8.63
13.211835861206055,-3.22,-8.04,-2.62,9.04
13.221856832504272,-3.66,-7.27,-1.61,8.29
13.232403755187988,-4.37,-5.28,-0.62,6.88
13.261651992797852,-5.07,-3.18,-0.16,5.98
13.265367031097412,-5.36,-1.83,-0.17,5.66
13.267860889434814,-5.24,-1.6,-0.65,5.51
13.271882057189941,-4.57,-2.32,-1.32,5.29
13.281901836395264,-3.75,-3.19,-2.1,5.35
13.291965007781982,-3.18,-3.53,-2.88,5.55
13.301915884017944,-2.67,-3.64,-3.21,5.53
13.312149047851562,-2.47,-3.51,-2.98,5.22
13.322090864181519,-2.58,-3.04,-2.32,4.61
13.332685947418213,-2.8,-2.37,-1.77,4.07
13.36207890510559,-2.92,-1.62,-1.4,3.62
13.365823745727539,-2.86,-1.03,-1.14,3.24
13.368257999420166,-2.71,-0.67,-0.97,2.95
13.372055053710938,-2.58,-0.44,-0.74,2.71
13.382301807403564,-2.41,-0.28,-0.52,2.48
13.39235782623291,-2.22,-0.18,-0.3,2.24
13.402292728424072,-1.99,-0.1,-0.13,1.99
13.41225290298462,-1.68,-0.1,0.05,1.68
13.422366857528687,-1.34,-0.28,0.25,1.39
13.432387828826904,-1.02,-0.41,0.52,1.21
13.457098007202148,-0.67,-0.48,0.73,1.1
13.460093975067139,-0.24,-0.55,0.91,1.09
13.46262502670288,0.19,-0.59,1.07,1.23
13.472847938537598,0.69,-0.54,1.13,1.42
13.482707023620605,1.26,-0.37,1.11,1.71
13.492677927017212,1.87,-0.16,0.94,2.09
13.502748966217041,2.45,0.09,0.77,2.56
13.512804985046387,3.02,0.4,0.64,3.11
13.523097038269043,3.63,0.65,0.41,3.71
13.538365840911865,4.22,0.84,0.15,4.3
13.556266784667969,4.79,1.02,0.02,4.89
13.560088872909546,5.34,1.13,-0.14,5.46
13.562767028808594,5.91,1.17,-0.33,6.03
13.572979927062988,6.43,1.19,-0.49,6.55
13.582934856414795,6.84,1.21,-0.64,6.97
13.593080043792725,7.28,1.14,-0.7,7.4
13.60292100906372,7.7,0.91,-0.71,7.78
13.613288879394531,7.94,0.9,-0.66,8.01
13.62305498123169,7.98,1.2,-0.54,8.08
13.634013891220093,8.11,1.32,-0.42,8.22
13.661321878433228,8.8,0.06,-0.61,8.82
13.665023803710938,9.93,-1.9,-0.96,10.15
13.667568922042847,11.1,-2.61,-0.77,11.42
13.673227787017822,11.68,-1.92,-0.35,11.84
13.683193922042847,11.14,-0.74,0.21,11.16
13.69345474243164,9.74,-0.32,0.93,9.78
13.703396797180176,8.32,-0.86,1.66,8.52
13.713635921478271,7.15,-1.68,1.9,7.58
13.723299026489258,6.61,-2.39,1.96,7.29
13.738557815551758,6.08,-2.73,2.02,6.96
13.757128715515137,5.43,-2.69,2.27,6.47
13.76078987121582,4.85,-2.31,2.56,5.95
13.763339042663574,4.14,-1.69,2.81,5.28
13.773546934127808,3.26,-1.09,2.76,4.4
13.783822059631348,2.64,-0.74,2.42,3.65
13.793696880340576,2.19,-0.41,2.05,3.02
13.803661823272705,1.63,0.18,1.4,2.15
13.81387996673584,1.11,0.94,0.32,1.48
13.823746919631958,0.61,1.73,-0.54,1.91
13.839224815368652,-0.03,2.12,-1.02,2.35
13.856968879699707,-0.71,2.15,-1.0,2.47
13.86001205444336,-1.35,1.81,-0.84,2.4
13.863796710968018,-1.92,1.19,-0.58,2.33
13.873839855194092,-2.26,0.42,-0.25,2.31
13.88400387763977,-2.44,-0.34,-0.13,2.46
13.894114017486572,-2.56,-1.02,-0.25,2.76
13.903849840164185,-2.55,-1.68,-0.46,3.08
13.913894891738892,-2.45,-2.3,-0.71,3.43
13.9248948097229,-2.4,-2.85,-0.8,3.81
13.934107780456543,-2.46,-3.5,-0.61,4.32
13.960795879364014,-2.58,-3.92,-0.36,4.7
13.964094877243042,-2.7,-4.17,-0.22,4.97
13.966562747955322,-2.81,-4.46,-0.06,5.27
13.974097728729248,-2.95,-4.78,0.05,5.61
13.984347820281982,-3.1,-4.98,0.15,5.86
13.994318962097168,-3.26,-5.18,0.26,6.12
14.004296779632568,-3.45,-5.36,0.24,6.37
14.014362812042236,-3.68,-5.55,0.09,6.65
14.024430751800537,-3.99,-5.77,0.01,7.01
14.03505277633667,-4.35,-6.01,0.0,7.41
14.061715841293335,-4.59,-6.4,-0.1,7.87
14.064750909805298,-4.77,-6.8,-0.18,8.3
14.067278861999512,-5.01,-7.04,-0.19,8.64
14.074492931365967,-5.36,-6.79,-0.14,8.65
14.084519863128662,-5.73,-6.27,-0.18,8.49
14.09469485282898,-5.66,-6.39,-0.65,8.56
14.104662895202637,-5.11,-7.44,-1.14,9.09
14.114691734313965,-4.39,-8.67,-0.86,9.75
14.124587059020996,-3.84,-9.2,0.01,9.96
14.134699821472168,-3.53,-8.5,0.64,9.22
14.161492824554443,-3.53,-6.81,0.3,7.67
14.164179801940918,-3.57,-4.76,-0.58,5.97
14.166698932647705,-3.62,-3.27,-1.53,5.11
14.175654888153076,-3.26,-2.91,-2.37,4.97
14.185096740722656,-2.34,-3.37,-3.07,5.12
14.195055961608887,-1.51,-3.87,-3.55,5.46
14.20518684387207,-0.68,-4.23,-3.49,5.52
14.214954853057861,0.07,-4.39,-3.29,5.48
14.225404739379883,0.46,-4.16,-2.92,5.1
14.240252017974854,0.64,-3.82,-2.3,4.5
14.258615016937256,0.72,-3.25,-1.65,3.71
14.261538982391357,0.72,-2.26,-1.52,2.81
14.265068054199219,0.68,-1.08,-1.63,2.07
14.275114059448242,0.63,-0.19,-1.8,1.91
14.285153865814209,0.5,0.28,-1.68,1.77
14.29542088508606,0.33,0.46,-1.47,1.57
14.305493831634521,0.2,0.6,-1.03,1.2
14.315348863601685,0.21,0.76,-0.64,1.01
14.325603008270264,0.25,0.83,-0.29,0.91
14.340576887130737,0.3,0.97,0.14,1.02
14.359141826629639,0.42,1.16,0.57,1.35
14.36210298538208,0.58,1.3,1.01,1.74
14.36534070968628,0.82,1.27,1.41,2.06
14.375531911849976,1.19,1.26,1.59,2.35
14.385617733001709,1.69,1.41,1.45,2.63
14.395710945129395,2.36,1.59,1.18,3.08
14.40559983253479,3.05,1.81,0.89,3.65
14.41596794128418,3.61,2.09,0.79,4.24
14.425699710845947,4.17,2.3,0.69,4.81
14.436249732971191,4.87,2.52,0.54,5.5
14.464047908782959,5.57,2.76,0.35,6.22
14.46766471862793,6.26,2.97,0.17,6.93
14.470170021057129,7.02,2.98,-0.04,7.62
14.475817918777466,7.78,2.83,-0.24,8.28
14.48580288887024,8.43,2.59,-0.32,8.82
14.495909929275513,8.9,2.35,-0.21,9.2
14.506010055541992,9.06,2.24,-0.05,9.33
14.515936851501465,8.97,2.25,0.19,9.24
14.525960922241211,8.7,2.37,0.51,9.03
14.536603927612305,8.29,2.45,0.82,8.68
14.566527843475342,8.18,1.97,1.18,8.49
14.570098876953125,8.7,0.24,1.5,8.83
14.57254695892334,9.7,-1.81,1.9,10.04
14.576226711273193,10.32,-2.81,2.13,10.9
14.59349775314331,10.0,-2.43,2.25,10.53
14.59614896774292,8.77,-1.41,2.13,9.13
14.606340885162354,7.44,-0.8,2.1,7.77
14.616583824157715,6.21,-0.69,2.31,6.66
14.626383781433105,5.14,-0.9,2.87,5.95
14.636316776275635,4.23,-1.31,3.47,5.62
14.665328025817871,3.49,-1.9,3.62,5.37
14.668257713317871,2.93,-2.52,3.53,5.23
14.670716762542725,2.6,-3.12,3.38,5.28
14.676581859588623,2.29,-3.49,3.17,5.24
14.68641471862793,2.0,-3.5,2.93,4.98
14.696778774261475,1.76,-3.34,2.55,4.55
14.706684827804565,1.38,-2.94,2.13,3.88
14.716620922088623,1.03,-2.18,1.65,2.92
14.72660779953003,0.69,-1.33,1.1,1.85
14.736501932144165,0.18,-0.72,0.82,1.1
14.765882968902588,-0.3,-0.44,0.89,1.03
14.768663883209229,-0.81,-0.35,1.09,1.4
14.771090030670166,-1.37,-0.25,1.28,1.89
14.77693796157837,-1.84,-0.21,1.38,2.3
14.786746978759766,-2.14,-0.35,1.47,2.61
14.79704999923706,-2.36,-0.65,1.47,2.85
14.806962966918945,-2.53,-1.04,1.39,3.06
14.817025899887085,-2.62,-1.44,1.4,3.3
14.82700777053833,-2.66,-1.84,1.53,3.57
14.842360973358154,-2.65,-2.34,1.66,3.9
14.859529972076416,-2.54,-2.95,1.7,4.24
14.862488746643066,-2.31,-3.56,1.71,4.57
14.867212772369385,-2.17,-4.01,1.73,4.87
14.877059936523438,-2.1,-4.32,1.79,5.12
14.887269973754883,-2.0,-4.63,1.9,5.38
14.897135734558105,-1.99,-4.94,1.99,5.68
14.907108783721924,-2.02,-5.24,2.1,5.99
14.917654991149902,-2.04,-5.57,2.26,6.34
14.927867889404297,-2.15,-5.86,2.38,6.68
14.93725299835205,-2.34,-6.09,2.46,6.97
14.965158939361572,-2.57,-6.26,2.64,7.26
14.968344926834106,-2.87,-6.41,2.8,7.56
14.970958709716797,-3.32,-6.37,3.09,7.81
14.977491855621338,-3.84,-6.27,3.64,8.2
14.98736572265625,-4.36,-6.05,4.0,8.46
14.997900009155273,-4.85,-5.76,4.1,8.57
15.007597923278809,-4.97,-5.6,3.59,8.3
15.017940044403076,-4.63,-5.95,2.92,8.08
15.02779483795166,-4.05,-6.76,2.76,8.34
15.038243770599365,-3.49,-7.21,3.01,8.55
15.06726598739624,-3.19,-6.68,2.97,7.97
15.070065021514893,-3.1,-5.42,2.61,6.76
15.072484970092773,-3.0,-4.01,2.12,5.43
15.077881813049316,-2.97,-2.88,1.37,4.35
15.093273878097534,-2.64,-2.51,0.55,3.68
15.09776782989502,-2.03,-2.91,-0.24,3.55
15.107831954956055,-1.42,-3.79,-0.65,4.09
15.11801290512085,-0.84,-4.7,-0.99,4.87
15.128414869308472,-0.35,-5.21,-1.24,5.36
15.138630867004395,-0.07,-5.13,-1.29,5.29
15.166082859039307,0.02,-4.57,-1.36,4.76
15.169283866882324,0.01,-3.93,-1.47,4.19
15.171754837036133,-0.17,-3.33,-1.56,3.68
15.178231716156006,-0.33,-2.86,-1.6,3.29
15.188103914260864,-0.28,-2.55,-1.51,2.97
15.198314905166626,-0.27,-2.23,-1.43,2.66
15.208427906036377,-0.39,-1.8,-1.49,2.36
15.218434810638428,-0.62,-1.36,-1.61,2.19
15.228631019592285,-0.79,-0.96,-1.57,2.0
15.238488912582397,-0.69,-0.7,-1.68,1.94
15.264080047607422,-0.59,-0.39,-1.87,1.99
15.266803741455078,-0.37,0.0,-2.04,2.07
15.26934289932251,0.05,0.24,-2.22,2.23
15.278624057769775,0.6,0.31,-2.17,2.27
15.288601875305176,1.26,0.39,-1.98,2.37
15.298680782318115,1.91,0.6,-1.75,2.65
15.308752059936523,2.55,0.92,-1.48,3.08
15.318598747253418,3.31,1.16,-1.12,3.68
15.329149723052979,3.89,1.45,-0.79,4.22
15.34317684173584,4.33,1.94,-0.52,4.77
15.362462997436523,4.74,2.37,-0.26,5.3
15.365245819091797,5.08,2.73,-0.23,5.77
15.368873834609985,5.23,3.0,-0.15,6.03
15.378914833068848,5.28,3.21,-0.11,6.18
15.389195919036865,5.25,3.49,-0.33,6.31
15.398730754852295,5.14,3.73,-0.62,6.38
15.408936977386475,5.07,3.95,-1.01,6.5
15.419021844863892,5.06,4.15,-1.49,6.71
15.429079055786133,5.14,4.21,-2.02,6.94
15.442704916000366,5.33,4.14,-2.63,7.24
15.465171813964844,5.59,3.98,-3.13,7.54
15.467869758605957,5.82,3.83,-3.44,7.77
15.470346927642822,5.97,3.74,-3.64,7.92
15.479233741760254,5.95,3.86,-3.69,7.99
15.489274978637695,5.82,3.94,-3.57,7.88
15.499230861663818,5.95,3.49,-3.11,7.56
15.50932502746582,6.48,2.26,-2.24,7.21
15.519539833068848,7.25,0.49,-1.3,7.38
15.529969930648804,7.9,-1.08,-0.76,8.0
15.543179035186768,8.24,-1.69,-0.88,8.45
15.566014766693115,8.44,-1.63,-0.94,8.64
15.56869387626648,8.36,-1.64,-0.3,8.52
15.571119785308838,7.94,-1.97,0.85,8.22
15.579361915588379,7.51,-2.66,2.05,8.22
15.589751720428467,7.24,-3.48,2.96,8.56
15.599672794342041,7.06,-4.17,3.38,8.86
15.609916925430298,6.89,-4.54,3.54,8.97
15.619633913040161,6.55,-4.47,3.53,8.68
15.629966735839844,5.95,-3.99,3.7,8.06
15.6405668258667,4.97,-3.37,4.06,7.24
15.666436910629272,3.8,-2.69,4.53,6.49
15.66921091079712,2.61,-2.02,5.05,6.03
15.671605825424194,1.43,-1.38,5.46,5.81
15.679759979248047,0.38,-0.82,5.68,5.75
15.68997573852539,-0.44,-0.37,5.76,5.78
15.699910879135132,-1.08,-0.09,5.7,5.8
15.709988832473755,-1.54,0.09,5.6,5.8
15.71997594833374,-1.8,0.15,5.53,5.81
15.729918956756592,-1.87,0.07,5.44,5.75
15.744187831878662,-1.72,-0.06,5.34,5.61
15.763563871383667,-1.37,-0.12,5.36,5.53
15.766162872314453,-0.96,-0.11,5.45,5.53
15.770277976989746,-0.5,-0.01,5.38,5.4
15.780179977416992,0.28,0.14,5.24,5.24
15.79033899307251,1.38,0.31,5.0,5.19
15.800197839736938,2.83,0.58,4.47,5.32
15.810204982757568,4.2,0.75,3.93,5.8
15.82505989074707,5.26,0.38,3.59,6.37
15.830348014831543,5.68,-0.39,3.76,6.82
15.843331813812256,5.68,-0.96,3.83,6.91
15.865664958953857,5.14,-0.78,3.72,6.39
15.868490934371948,4.13,-0.95,4.14,5.92
15.870975017547607,2.91,-1.75,4.76,5.84
15.880520820617676,1.65,-2.6,5.49,6.29
15.890785932540894,0.92,-2.83,6.15,6.83
15.900660037994385,0.49,-2.36,7.07,7.46
15.910492897033691,0.23,-1.83,8.13,8.33
15.92069387435913,-0.21,-1.56,8.92,9.05
15.930675029754639,-0.86,-1.7,9.41,9.6
15.941351890563965,-1.07,-2.16,9.17,9.48
15.969905853271484,-1.03,-2.51,8.05,8.49
15.97255277633667,-1.29,-2.62,6.7,7.3
15.975008964538574,-1.23,-2.58,5.51,6.2
15.98086404800415,-1.24,-2.5,4.44,5.24
15.990735054016113,-1.38,-2.5,3.76,4.72
16.001301765441895,-1.37,-2.44,3.22,4.26
16.010998725891113,-1.48,-2.26,2.69,3.81
16.02113389968872,-1.6,-2.18,2.3,3.54
16.02678680419922,-1.69,-2.23,1.72,3.28
16.036770820617676,-1.86,-2.25,1.16,3.14
16.047510862350464,-1.99,-2.11,0.85,3.02
16.064480781555176,-1.91,-1.84,0.72,2.74
16.068148851394653,-1.66,-1.6,0.81,2.44
16.076924800872803,-1.39,-1.5,1.09,2.31
16.08713674545288,-1.0,-1.62,1.53,2.44
16.097126007080078,-0.53,-2.06,2.16,3.03
16.107292890548706,-0.02,-2.49,2.33,3.41
16.117852926254272,0.34,-3.03,2.13,3.71
16.130685806274414,0.51,-3.55,1.94,4.07
16.13775086402893,0.79,-3.93,1.5,4.28
16.151330947875977,0.78,-4.01,1.12,4.23
16.16849374771118,0.76,-3.93,0.76,4.07
16.171990871429443,0.79,-3.81,0.68,3.95
16.177233934402466,0.68,-3.77,0.63,3.88
16.187517881393433,0.58,-3.86,0.35,3.91
16.197386741638184,0.64,-4.04,-0.29,4.1
16.207273960113525,0.76,-3.97,-1.06,4.17
16.217671871185303,0.62,-3.56,-1.0,3.74
16.227447986602783,0.19,-3.3,0.15,3.3
16.243111848831177,-0.21,-3.55,1.21,3.75
16.247459888458252,-0.46,-3.89,0.85,4.0
16.263529777526855,-0.35,-4.01,-0.27,4.03
16.267621994018555,0.08,-3.84,-1.07,3.98
16.277788877487183,0.48,-3.51,-1.64,3.9
16.2877140045166,0.77,-3.27,-1.89,3.85
16.297996044158936,2.36,-3.06,-2.77,4.75
16.30772304534912,3.13,-3.22,-2.03,4.92
16.317725896835327,4.98,-1.55,-1.61,5.45
16.328383922576904,4.48,-0.64,-0.49,4.55
16.3419828414917,1.16,-4.46,-0.95,4.7
16.348601818084717,2.33,-4.48,0.48,5.07
16.367174863815308,1.48,-3.37,0.68,3.74
16.370139837265015,0.53,-2.32,-1.55,2.84
16.378041744232178,0.15,-1.67,-2.23,2.79
16.387995719909668,0.38,-0.73,-2.51,2.64
16.398069858551025,0.72,0.05,-2.82,2.91
16.40806770324707,0.76,0.01,-2.44,2.55
16.417977809906006,0.57,-0.54,-1.47,1.66
16.42836570739746,0.39,-0.92,-1.11,1.49
16.439183712005615,0.29,-1.02,-1.22,1.61
16.452030897140503,0.43,-0.83,-1.28,1.58
16.46961498260498,0.47,-0.87,-1.41,1.72
16.47220802307129,0.39,-1.16,-1.55,1.97
16.478181838989258,0.34,-1.14,-1.51,1.92
16.488486766815186,0.03,-1.05,-1.56,1.88
16.49834394454956,-0.36,-0.95,-1.53,1.83
16.508492946624756,-0.73,-0.67,-1.43,1.73
16.518301963806152,-0.87,-0.42,-1.55,1.82
16.528441905975342,-0.64,-0.27,-1.65,1.79
16.538710832595825,-0.27,-0.22,-1.6,1.63
16.549192905426025,0.1,-0.31,-1.56,1.59
16.577165842056274,0.34,-0.43,-1.4,1.5
16.580111980438232,0.41,-0.55,-1.27,1.44
16.582589864730835,0.42,-0.56,-1.1,1.3
16.589143753051758,0.47,-0.61,-1.08,1.32
16.59925603866577,0.5,-0.61,-1.04,1.3
16.60923480987549,0.47,-0.57,-1.01,1.25
16.619325876235962,0.36,-0.5,-1.05,1.21
16.629316806793213,0.22,-0.34,-1.13,1.2
16.63921594619751,0.05,-0.23,-1.22,1.24
16.65043878555298,-0.13,-0.19,-1.77,1.78
16.67420983314514,-0.19,-0.05,-1.7,1.71
16.67753505706787,-0.41,0.11,-1.24,1.31
16.68004274368286,-0.57,0.6,-1.41,1.63
16.692235946655273,-0.61,1.13,-1.48,1.95
16.6995267868042,-0.53,1.15,-1.42,1.9
16.71007490158081,-0.37,1.1,-1.43,1.84
16.720026969909668,-0.21,1.14,-1.63,2.0
16.73339605331421,-0.07,1.04,-1.68,1.97
