
time,wx,wy,wz,ax,ay,az,
14:35:44:268,0.03,-0.08,-0.06,0.13,0.14,-0.46,
14:35:44:269,0.02,-0.08,-0.06,0.13,0.14,-0.46,
14:35:44:269,0.02,-0.08,-0.07,0.13,0.14,-0.46,
14:35:44:269,0.02,-0.08,-0.07,0.16,0.07,-0.45,
14:35:44:269,0.01,-0.09,-0.07,0.16,0.07,-0.45,
14:35:44:269,0.01,-0.09,-0.07,0.16,0.07,-0.45,
14:35:44:269,0.01,-0.09,-0.07,0.17,0.01,-0.44,
14:35:44:270,0.00,-0.09,-0.07,0.17,0.01,-0.44,
14:35:44:270,0.00,-0.09,-0.08,0.17,0.01,-0.44,
14:35:44:270,-0.00,-0.09,-0.08,0.17,0.01,-0.44,
14:35:44:270,-0.00,-0.09,-0.08,0.18,-0.01,-0.40,
14:35:44:270,-0.01,-0.09,-0.08,0.18,-0.01,-0.40,
14:35:44:270,-0.01,-0.09,-0.08,0.24,-0.03,-0.40,
14:35:44:270,-0.02,-0.09,-0.09,0.24,-0.03,-0.40,
14:35:44:275,-0.02,-0.10,-0.09,0.24,-0.03,-0.40,
14:35:44:276,-0.02,-0.10,-0.09,0.33,-0.02,-0.41,
14:35:44:276,-0.03,-0.10,-0.09,0.33,-0.02,-0.41,
14:35:44:276,-0.03,-0.11,-0.10,0.33,-0.02,-0.41,
14:35:44:278,-0.03,-0.12,-0.10,0.33,-0.02,-0.41,
14:35:44:279,-0.03,-0.12,-0.10,0.35,0.00,-0.41,
14:35:44:279,-0.04,-0.12,-0.10,0.35,0.00,-0.41,
14:35:44:281,-0.04,-0.12,-0.10,0.35,0.00,-0.41,
14:35:44:282,-0.04,-0.12,-0.10,0.30,0.05,-0.37,
14:35:44:286,-0.05,-0.12,-0.10,0.30,0.05,-0.37,
14:35:44:286,-0.05,-0.13,-0.10,0.30,0.05,-0.37,
14:35:44:287,-0.05,-0.13,-0.10,0.20,0.07,-0.31,
14:35:44:288,-0.05,-0.13,-0.10,0.20,0.07,-0.31,
14:35:44:291,-0.05,-0.13,-0.10,0.09,0.09,-0.26,
14:35:44:292,-0.05,-0.13,-0.10,0.09,0.09,-0.26,
14:35:44:292,-0.05,-0.12,-0.09,0.09,0.09,-0.26,
14:35:44:294,-0.05,-0.12,-0.09,-0.02,0.11,-0.19,
14:35:44:295,-0.05,-0.12,-0.09,-0.02,0.11,-0.19,
14:35:44:296,-0.05,-0.12,-0.09,-0.02,0.11,-0.19,
14:35:44:298,-0.05,-0.11,-0.09,-0.02,0.11,-0.19,
14:35:44:298,-0.05,-0.11,-0.09,-0.10,0.11,-0.11,
14:35:44:306,-0.05,-0.10,-0.09,-0.10,0.11,-0.11,
14:35:44:306,-0.05,-0.09,-0.09,-0.10,0.11,-0.11,
14:35:44:306,-0.05,-0.09,-0.09,-0.12,0.11,-0.05,
14:35:44:306,-0.05,-0.09,-0.09,-0.12,0.11,-0.05,
14:35:44:307,-0.05,-0.08,-0.10,-0.12,0.11,-0.05,
14:35:44:307,-0.05,-0.08,-0.10,-0.04,0.12,-0.02,
14:35:44:308,-0.05,-0.08,-0.10,-0.04,0.12,-0.02,
14:35:44:311,-0.05,-0.08,-0.10,0.06,0.12,-0.01,
14:35:44:311,-0.05,-0.07,-0.10,0.06,0.12,-0.01,
14:35:44:312,-0.04,-0.07,-0.10,0.06,0.12,-0.01,
14:35:44:314,-0.04,-0.07,-0.10,0.14,0.13,-0.02,
14:35:44:314,-0.04,-0.06,-0.10,0.14,0.13,-0.02,
14:35:44:318,-0.05,-0.05,-0.11,0.14,0.13,-0.02,
14:35:44:319,-0.05,-0.05,-0.11,0.20,0.14,-0.01,
14:35:44:319,-0.05,-0.05,-0.11,0.20,0.14,-0.01,
14:35:44:320,-0.05,-0.04,-0.11,0.20,0.14,-0.01,
14:35:44:322,-0.05,-0.04,-0.11,0.19,0.14,-0.01,
14:35:44:322,-0.05,-0.04,-0.11,0.19,0.14,-0.01,
14:35:44:324,-0.05,-0.04,-0.11,0.19,0.14,-0.01,
14:35:44:326,-0.05,-0.04,-0.11,0.13,0.14,-0.01,
14:35:44:326,-0.05,-0.04,-0.11,0.13,0.14,-0.01,
14:35:44:328,-0.05,-0.04,-0.11,0.13,0.14,-0.01,
14:35:44:331,-0.05,-0.04,-0.11,0.06,0.15,0.00,
14:35:44:331,-0.05,-0.04,-0.11,0.06,0.15,0.00,
14:35:44:331,-0.06,-0.04,-0.11,0.06,0.15,0.00,
14:35:44:334,-0.06,-0.04,-0.11,0.01,0.16,0.02,
14:35:44:334,-0.05,-0.04,-0.11,0.01,0.16,0.02,
14:35:44:336,-0.05,-0.04,-0.11,0.01,0.16,0.02,
14:35:44:339,-0.05,-0.04,-0.11,-0.03,0.19,0.06,
14:35:44:339,-0.05,-0.04,-0.10,-0.03,0.19,0.06,
14:35:44:340,-0.05,-0.04,-0.10,-0.03,0.19,0.06,
14:35:44:343,-0.05,-0.04,-0.10,-0.05,0.20,0.12,
14:35:44:344,-0.04,-0.03,-0.10,-0.05,0.20,0.12,
14:35:44:344,-0.04,-0.03,-0.10,-0.05,0.20,0.12,
14:35:44:346,-0.04,-0.03,-0.10,-0.08,0.23,0.19,
14:35:44:347,-0.03,-0.03,-0.10,-0.08,0.23,0.19,
14:35:44:349,-0.03,-0.03,-0.10,-0.08,0.23,0.19,
14:35:44:352,-0.03,-0.03,-0.10,-0.08,0.23,0.28,
14:35:44:352,-0.02,-0.03,-0.10,-0.08,0.23,0.28,
14:35:44:353,-0.02,-0.03,-0.10,-0.08,0.23,0.28,
14:35:44:355,-0.02,-0.03,-0.10,-0.08,0.22,0.34,
14:35:44:355,-0.01,-0.02,-0.10,-0.08,0.22,0.34,
14:35:44:356,-0.00,-0.02,-0.10,-0.08,0.22,0.34,
14:35:44:358,-0.00,-0.02,-0.10,-0.06,0.19,0.38,
14:35:44:359,0.01,-0.01,-0.10,-0.06,0.19,0.38,
14:35:44:360,0.01,-0.01,-0.10,-0.06,0.19,0.38,
14:35:44:363,0.01,-0.01,-0.10,-0.04,0.15,0.41,
14:35:44:364,0.02,-0.00,-0.09,-0.04,0.15,0.41,
14:35:44:366,0.03,-0.00,-0.09,-0.04,0.15,0.41,
14:35:44:366,0.04,-0.00,-0.09,-0.04,0.15,0.41,
14:35:44:366,0.04,-0.00,-0.09,-0.03,0.14,0.44,
14:35:44:377,0.05,-0.00,-0.09,-0.03,0.14,0.44,
14:35:44:378,0.05,0.01,-0.09,-0.03,0.14,0.44,
14:35:44:378,0.05,0.01,-0.09,-0.03,0.13,0.44,
14:35:44:379,0.06,0.01,-0.09,-0.03,0.13,0.44,
14:35:44:379,0.06,0.01,-0.09,-0.04,0.10,0.41,
14:35:44:379,0.07,0.01,-0.09,-0.04,0.10,0.41,
14:35:44:380,0.07,0.02,-0.09,-0.04,0.10,0.41,
14:35:44:380,0.07,0.02,-0.09,-0.03,0.08,0.37,
14:35:44:380,0.08,0.02,-0.09,-0.03,0.08,0.37,
14:35:44:380,0.08,0.02,-0.09,-0.03,0.08,0.37,
14:35:44:383,0.08,0.02,-0.09,-0.03,0.08,0.37,
14:35:44:384,0.08,0.02,-0.09,-0.03,0.08,0.33,
14:35:44:384,0.09,0.02,-0.09,-0.03,0.08,0.33,
14:35:44:407,0.09,0.01,-0.08,-0.03,0.08,0.33,
14:35:44:427,0.09,0.01,-0.08,-0.03,0.05,0.26,
14:35:44:427,0.10,0.01,-0.08,-0.03,0.05,0.26,
14:35:44:427,0.10,0.01,-0.08,-0.05,0.05,0.21,
14:35:44:427,0.10,0.01,-0.08,-0.05,0.05,0.21,
14:35:44:428,0.10,0.01,-0.08,-0.05,0.05,0.21,
14:35:44:428,0.10,0.01,-0.08,-0.06,0.05,0.18,
14:35:44:428,0.10,0.00,-0.08,-0.06,0.05,0.18,
14:35:44:428,0.11,-0.00,-0.08,-0.06,0.05,0.18,
14:35:44:428,0.11,-0.00,-0.08,-0.09,0.04,0.11,
14:35:44:428,0.11,-0.00,-0.07,-0.09,0.04,0.11,
14:35:44:429,0.11,-0.01,-0.07,-0.09,0.04,0.11,
14:35:44:429,0.11,-0.01,-0.07,-0.11,0.02,0.04,
14:35:44:429,0.11,-0.01,-0.07,-0.11,0.02,0.04,
14:35:44:429,0.11,-0.01,-0.07,-0.11,0.02,0.04,
14:35:44:429,0.11,-0.01,-0.07,-0.13,-0.01,-0.01,
14:35:44:429,0.11,-0.02,-0.06,-0.13,-0.01,-0.01,
14:35:44:429,0.11,-0.02,-0.06,-0.13,-0.01,-0.01,
14:35:44:430,0.11,-0.02,-0.06,-0.15,-0.04,-0.05,
14:35:44:430,0.11,-0.02,-0.06,-0.15,-0.04,-0.05,
14:35:44:430,0.11,-0.03,-0.06,-0.15,-0.04,-0.05,
14:35:44:430,0.11,-0.03,-0.05,-0.15,-0.04,-0.05,
14:35:44:430,0.11,-0.03,-0.05,-0.15,-0.06,-0.09,
14:35:44:430,0.11,-0.03,-0.05,-0.15,-0.06,-0.09,
14:35:44:430,0.11,-0.03,-0.05,-0.17,-0.07,-0.12,
14:35:44:431,0.10,-0.04,-0.05,-0.17,-0.07,-0.12,
14:35:44:431,0.10,-0.04,-0.04,-0.17,-0.07,-0.12,
14:35:44:431,0.10,-0.04,-0.04,-0.17,-0.07,-0.12,
14:35:44:431,0.10,-0.04,-0.04,-0.19,-0.08,-0.11,
14:35:44:431,0.10,-0.05,-0.04,-0.19,-0.08,-0.11,
14:35:44:431,0.10,-0.05,-0.04,-0.20,-0.09,-0.11,
14:35:44:431,0.10,-0.05,-0.03,-0.20,-0.09,-0.11,
14:35:44:431,0.10,-0.05,-0.03,-0.20,-0.09,-0.11,
14:35:44:432,0.10,-0.05,-0.03,-0.21,-0.08,-0.12,
14:35:44:432,0.10,-0.06,-0.02,-0.21,-0.08,-0.12,
14:35:44:432,0.10,-0.06,-0.02,-0.21,-0.08,-0.12,
14:35:44:434,0.10,-0.06,-0.02,-0.22,-0.09,-0.13,
14:35:44:434,0.10,-0.06,-0.02,-0.22,-0.09,-0.13,
14:35:44:436,0.10,-0.06,-0.02,-0.22,-0.09,-0.13,
14:35:44:438,0.10,-0.06,-0.02,-0.20,-0.08,-0.14,
14:35:44:438,0.10,-0.06,-0.02,-0.20,-0.08,-0.14,
14:35:44:440,0.10,-0.06,-0.01,-0.20,-0.08,-0.14,
14:35:44:442,0.10,-0.06,-0.01,-0.20,-0.08,-0.14,
14:35:44:442,0.10,-0.06,-0.01,-0.16,-0.06,-0.15,
14:35:44:444,0.10,-0.06,-0.01,-0.16,-0.06,-0.15,
14:35:44:446,0.10,-0.06,-0.01,-0.13,-0.07,-0.15,
14:35:44:446,0.10,-0.06,-0.01,-0.13,-0.07,-0.15,
14:35:44:449,0.10,-0.06,-0.01,-0.13,-0.07,-0.15,
14:35:44:453,0.10,-0.06,-0.01,-0.08,-0.07,-0.17,
14:35:44:454,0.10,-0.05,-0.01,-0.08,-0.07,-0.17,
14:35:44:455,0.10,-0.05,-0.01,-0.08,-0.07,-0.17,
14:35:44:455,0.10,-0.04,-0.01,-0.08,-0.07,-0.17,
14:35:44:455,0.10,-0.04,-0.01,-0.05,-0.06,-0.19,
14:35:44:456,0.10,-0.04,-0.01,-0.05,-0.06,-0.19,
14:35:44:458,0.10,-0.04,-0.01,-0.05,-0.06,-0.19,
14:35:44:458,0.10,-0.04,-0.01,-0.01,-0.08,-0.22,
14:35:44:460,0.09,-0.04,-0.01,-0.01,-0.08,-0.22,
14:35:44:462,0.09,-0.04,-0.01,-0.01,-0.09,-0.25,
14:35:44:462,0.09,-0.04,-0.01,-0.01,-0.09,-0.25,
14:35:44:464,0.09,-0.04,-0.01,-0.01,-0.09,-0.25,
14:35:44:467,0.09,-0.04,-0.01,0.00,-0.07,-0.26,
14:35:44:467,0.09,-0.04,-0.01,0.00,-0.07,-0.26,
14:35:44:467,0.09,-0.04,-0.01,0.00,-0.07,-0.26,
14:35:44:471,0.09,-0.04,-0.01,0.00,-0.06,-0.26,
14:35:44:471,0.08,-0.04,-0.01,0.00,-0.06,-0.26,
14:35:44:471,0.08,-0.04,-0.01,0.00,-0.06,-0.26,
14:35:44:474,0.08,-0.04,-0.01,0.00,-0.06,-0.26,
14:35:44:474,0.08,-0.04,-0.01,-0.01,-0.06,-0.26,
14:35:44:475,0.08,-0.03,-0.01,-0.01,-0.06,-0.26,
14:35:44:479,0.08,-0.03,-0.01,-0.00,-0.07,-0.26,
14:35:44:479,0.07,-0.03,-0.01,-0.00,-0.07,-0.26,
14:35:44:480,0.07,-0.03,-0.01,-0.00,-0.07,-0.26,
14:35:44:482,0.07,-0.03,-0.01,0.01,-0.08,-0.26,
14:35:44:483,0.07,-0.02,-0.01,0.01,-0.08,-0.26,
14:35:44:485,0.07,-0.02,-0.01,0.01,-0.08,-0.26,
14:35:44:486,0.07,-0.02,-0.01,0.04,-0.08,-0.27,
14:35:44:487,0.07,-0.02,-0.01,0.04,-0.08,-0.27,
14:35:44:488,0.06,-0.01,-0.01,0.04,-0.08,-0.27,
14:35:44:490,0.06,-0.01,-0.01,0.08,-0.07,-0.27,
14:35:44:490,0.06,-0.01,-0.02,0.08,-0.07,-0.27,
14:35:44:492,0.06,-0.01,-0.02,0.08,-0.07,-0.27,
14:35:44:494,0.06,-0.01,-0.02,0.10,-0.07,-0.27,
14:35:44:495,0.06,-0.01,-0.02,0.10,-0.07,-0.27,
14:35:44:496,0.05,-0.01,-0.02,0.10,-0.07,-0.27,
14:35:44:499,0.05,-0.01,-0.02,0.10,-0.07,-0.27,
14:35:44:499,0.05,-0.01,-0.02,0.10,-0.06,-0.26,
14:35:44:499,0.04,-0.01,-0.02,0.10,-0.06,-0.26,
14:35:44:502,0.04,-0.01,-0.02,0.10,-0.06,-0.26,
14:35:44:503,0.04,-0.01,-0.02,0.09,-0.07,-0.26,
14:35:44:504,0.04,-0.01,-0.02,0.09,-0.07,-0.26,
14:35:44:506,0.04,-0.01,-0.02,0.07,-0.07,-0.26,
14:35:44:507,0.04,-0.01,-0.02,0.07,-0.07,-0.26,
14:35:44:508,0.03,-0.00,-0.02,0.07,-0.07,-0.26,
14:35:44:510,0.03,-0.00,-0.02,0.06,-0.07,-0.28,
14:35:44:510,0.03,-0.00,-0.02,0.06,-0.07,-0.28,
14:35:44:512,0.02,-0.00,-0.02,0.06,-0.07,-0.28,
14:35:44:515,0.02,-0.00,-0.02,0.06,-0.07,-0.28,
14:35:44:515,0.02,-0.00,-0.02,0.05,-0.06,-0.29,
14:35:44:517,0.02,-0.00,-0.02,0.05,-0.06,-0.29,
14:35:44:518,0.02,-0.00,-0.02,0.05,-0.07,-0.30,
14:35:44:519,0.01,-0.00,-0.02,0.05,-0.07,-0.30,
14:35:44:542,0.01,-0.00,-0.02,0.05,-0.07,-0.30,
14:35:44:542,0.01,-0.00,-0.02,0.06,-0.07,-0.31,
14:35:44:543,0.01,-0.01,-0.01,0.06,-0.07,-0.31,
14:35:44:544,0.00,-0.00,-0.02,0.06,-0.07,-0.31,
14:35:44:545,0.00,-0.00,-0.02,0.06,-0.06,-0.30,
14:35:44:545,0.01,-0.01,-0.01,0.06,-0.06,-0.30,
14:35:44:546,0.00,-0.01,-0.01,0.06,-0.06,-0.30,
14:35:44:546,0.00,-0.01,-0.01,0.05,-0.07,-0.27,
14:35:44:546,0.00,-0.01,-0.01,0.05,-0.07,-0.27,
14:35:44:547,-0.00,-0.01,-0.00,0.05,-0.07,-0.27,
14:35:44:547,-0.00,-0.01,-0.00,0.02,-0.07,-0.25,
14:35:44:547,-0.00,-0.01,-0.00,0.02,-0.07,-0.25,
14:35:44:548,-0.00,-0.01,0.00,0.02,-0.07,-0.25,
14:35:44:548,-0.00,-0.01,0.00,-0.01,-0.08,-0.22,
14:35:44:548,-0.00,-0.01,0.01,-0.01,-0.08,-0.22,
14:35:44:548,-0.00,-0.00,0.01,-0.01,-0.08,-0.22,
14:35:44:548,-0.00,-0.00,0.01,-0.03,-0.07,-0.18,
14:35:44:548,0.00,-0.00,0.01,-0.03,-0.07,-0.18,
14:35:44:549,0.00,-0.00,0.01,-0.03,-0.07,-0.18,
14:35:44:549,0.00,-0.00,0.01,-0.04,-0.07,-0.14,
14:35:44:549,0.00,0.00,0.01,-0.04,-0.07,-0.14,
14:35:44:549,0.00,-0.00,0.02,-0.04,-0.07,-0.14,
14:35:44:551,0.00,-0.00,0.02,-0.03,-0.06,-0.10,
14:35:44:552,0.00,0.01,0.02,-0.03,-0.06,-0.10,
14:35:44:552,0.01,0.00,0.02,-0.03,-0.06,-0.10,
14:35:44:554,0.01,0.00,0.02,-0.01,-0.07,-0.06,
14:35:44:554,0.01,0.01,0.02,-0.01,-0.07,-0.06,
14:35:44:556,0.01,0.02,0.02,-0.01,-0.07,-0.06,
14:35:44:558,0.01,0.02,0.02,0.02,-0.10,-0.05,
14:35:44:558,0.01,0.02,0.03,0.02,-0.10,-0.05,
14:35:44:561,0.01,0.02,0.03,0.02,-0.10,-0.05,
14:35:44:561,0.02,0.02,0.03,0.02,-0.10,-0.05,
14:35:44:562,0.02,0.02,0.03,0.04,-0.10,-0.05,
14:35:44:564,0.02,0.03,0.03,0.04,-0.10,-0.05,
14:35:44:567,0.02,0.03,0.03,0.06,-0.12,-0.06,
14:35:44:567,0.02,0.03,0.03,0.06,-0.12,-0.06,
14:35:44:568,0.02,0.03,0.03,0.06,-0.12,-0.06,
14:35:44:570,0.02,0.03,0.03,0.07,-0.11,-0.09,
14:35:44:571,0.02,0.03,0.03,0.07,-0.11,-0.09,
14:35:44:573,0.01,0.03,0.03,0.07,-0.11,-0.09,
14:35:44:575,0.01,0.03,0.03,0.07,-0.11,-0.09,
14:35:44:576,0.01,0.03,0.03,0.07,-0.10,-0.13,
14:35:44:576,0.01,0.03,0.03,0.07,-0.10,-0.13,
14:35:44:580,0.01,0.03,0.03,0.05,-0.10,-0.17,
14:35:44:580,0.00,0.02,0.03,0.05,-0.10,-0.17,
14:35:44:580,0.00,0.02,0.03,0.05,-0.10,-0.17,
14:35:44:582,0.00,0.02,0.03,0.02,-0.08,-0.23,
14:35:44:582,-0.00,0.02,0.03,0.02,-0.08,-0.23,
14:35:44:592,-0.01,0.01,0.03,0.02,-0.08,-0.23,
14:35:44:593,-0.01,0.01,0.03,0.02,-0.06,-0.26,
14:35:44:594,-0.01,0.01,0.02,0.02,-0.06,-0.26,
14:35:44:594,-0.02,0.01,0.02,0.02,-0.06,-0.26,
14:35:44:594,-0.02,0.01,0.02,0.02,-0.04,-0.29,
14:35:44:595,-0.02,0.01,0.02,0.02,-0.04,-0.29,
14:35:44:595,-0.03,0.01,0.02,0.02,-0.04,-0.29,
14:35:44:595,-0.03,0.01,0.02,0.00,-0.03,-0.31,
14:35:44:595,-0.03,0.01,0.02,0.00,-0.03,-0.31,
14:35:44:596,-0.03,0.01,0.02,0.00,-0.03,-0.31,
14:35:44:600,-0.03,0.01,0.02,-0.00,-0.03,-0.33,
14:35:44:600,-0.04,0.01,0.02,-0.00,-0.03,-0.33,
14:35:44:601,-0.04,0.00,0.02,-0.00,-0.03,-0.33,
14:35:44:603,-0.05,0.00,0.01,-0.00,-0.03,-0.33,
14:35:44:604,-0.05,0.00,0.01,0.00,-0.02,-0.35,
14:35:44:604,-0.05,0.00,0.01,0.00,-0.02,-0.35,
14:35:44:609,-0.05,0.00,0.01,0.05,-0.00,-0.35,
14:35:44:610,-0.06,-0.00,0.01,0.05,-0.00,-0.35,
14:35:44:610,-0.06,-0.00,0.01,0.05,-0.00,-0.35,
14:35:44:610,-0.06,-0.00,0.01,0.09,0.01,-0.33,
14:35:44:611,-0.07,-0.00,0.01,0.09,0.01,-0.33,
14:35:44:617,-0.07,0.00,0.01,0.09,0.01,-0.33,
14:35:44:618,-0.07,0.00,0.01,0.06,0.01,-0.33,
14:35:44:618,-0.08,-0.00,0.00,0.06,0.01,-0.33,
14:35:44:618,-0.08,-0.00,0.00,0.06,0.01,-0.33,
14:35:44:618,-0.08,-0.00,0.00,0.05,0.01,-0.32,
14:35:44:618,-0.09,-0.01,-0.00,0.05,0.01,-0.32,
14:35:44:623,-0.09,-0.01,-0.00,0.05,0.01,-0.32,
14:35:44:624,-0.09,-0.01,-0.00,0.05,0.01,-0.32,
14:35:44:624,-0.09,-0.01,-0.00,0.06,0.01,-0.30,
14:35:44:624,-0.09,-0.01,-0.01,0.06,0.01,-0.30,
14:35:44:626,-0.09,-0.01,-0.01,0.06,0.01,-0.30,
14:35:44:627,-0.09,-0.01,-0.01,0.07,0.02,-0.25,
14:35:44:628,-0.10,-0.02,-0.01,0.07,0.02,-0.25,
14:35:44:629,-0.09,-0.02,-0.01,0.07,0.02,-0.25,
14:35:44:630,-0.09,-0.02,-0.01,0.11,0.03,-0.19,
14:35:44:632,-0.09,-0.01,-0.02,0.11,0.03,-0.19,
14:35:44:634,-0.09,-0.01,-0.02,0.12,0.03,-0.12,
14:35:44:635,-0.09,-0.01,-0.01,0.12,0.03,-0.12,
14:35:44:636,-0.09,-0.01,-0.02,0.12,0.03,-0.12,
14:35:44:638,-0.09,-0.01,-0.02,0.05,0.04,-0.05,
14:35:44:639,-0.08,-0.01,-0.02,0.05,0.04,-0.05,
14:35:44:640,-0.08,-0.00,-0.02,0.05,0.04,-0.05,
14:35:44:643,-0.08,-0.00,-0.02,-0.01,0.04,0.02,
14:35:44:643,-0.08,0.00,-0.02,-0.01,0.04,0.02,
14:35:44:645,-0.07,0.01,-0.01,-0.01,0.04,0.02,
14:35:44:646,-0.07,0.02,-0.02,-0.01,0.04,0.02,
14:35:44:646,-0.07,0.02,-0.02,-0.02,0.06,0.10,
14:35:44:649,-0.07,0.02,-0.01,-0.02,0.06,0.10,
14:35:44:652,-0.07,0.02,-0.01,-0.06,0.09,0.13,
14:35:44:653,-0.06,0.03,-0.01,-0.06,0.09,0.13,
14:35:44:653,-0.06,0.03,-0.01,-0.06,0.09,0.13,
14:35:44:674,-0.06,0.03,-0.01,-0.06,0.09,0.13,
14:35:44:674,-0.06,0.03,-0.01,-0.07,0.11,0.14,
14:35:44:675,-0.06,0.03,-0.01,-0.07,0.11,0.14,
14:35:44:675,-0.06,0.03,-0.01,-0.08,0.13,0.15,
14:35:44:675,-0.05,0.03,-0.02,-0.08,0.13,0.15,
14:35:44:676,-0.04,0.03,-0.01,-0.08,0.13,0.15,
14:35:44:676,-0.04,0.03,-0.02,-0.08,0.13,0.15,
14:35:44:676,-0.04,0.03,-0.02,-0.08,0.16,0.15,
14:35:44:676,-0.04,0.02,-0.02,-0.08,0.16,0.15,
14:35:44:677,-0.04,0.02,-0.02,-0.08,0.16,0.15,
14:35:44:677,-0.04,0.02,-0.02,-0.06,0.16,0.15,
14:35:44:677,-0.04,0.02,-0.02,-0.06,0.16,0.15,
14:35:44:678,-0.04,0.02,-0.02,-0.00,0.17,0.14,
14:35:44:678,-0.04,0.02,-0.02,-0.00,0.17,0.14,
14:35:44:678,-0.03,0.02,-0.02,-0.00,0.17,0.14,
14:35:44:678,-0.03,0.02,-0.02,-0.00,0.17,0.14,
14:35:44:679,-0.03,0.02,-0.02,0.03,0.20,0.12,
14:35:44:679,-0.04,0.03,-0.03,0.03,0.20,0.12,
14:35:44:679,-0.04,0.03,-0.03,0.00,0.22,0.11,
14:35:44:679,-0.03,0.03,-0.03,0.00,0.22,0.11,
14:35:44:680,-0.03,0.03,-0.02,0.00,0.22,0.11,
14:35:44:696,-0.03,0.03,-0.03,0.00,0.22,0.11,
14:35:44:697,-0.03,0.03,-0.03,0.03,0.23,0.09,
14:35:44:697,-0.02,0.04,-0.03,0.03,0.23,0.09,
14:35:44:697,-0.02,0.04,-0.03,0.05,0.24,0.09,
14:35:44:698,-0.02,0.04,-0.03,0.05,0.24,0.09,
14:35:44:698,-0.02,0.04,-0.03,0.05,0.24,0.09,
14:35:44:698,-0.02,0.04,-0.03,0.02,0.22,0.09,
14:35:44:698,-0.02,0.04,-0.03,0.02,0.22,0.09,
14:35:44:698,-0.02,0.04,-0.03,0.02,0.22,0.09,
14:35:44:698,-0.02,0.04,-0.03,0.03,0.18,0.09,
14:35:44:699,-0.01,0.04,-0.03,0.03,0.18,0.09,
14:35:44:699,-0.01,0.04,-0.03,0.03,0.18,0.09,
14:35:44:699,-0.01,0.04,-0.03,0.01,0.16,0.07,
14:35:44:699,-0.01,0.04,-0.03,0.01,0.16,0.07,
14:35:44:704,-0.01,0.04,-0.03,0.01,0.16,0.07,
14:35:44:704,-0.01,0.04,-0.03,-0.01,0.13,0.04,
14:35:44:704,-0.01,0.04,-0.03,-0.01,0.13,0.04,
14:35:44:705,-0.01,0.04,-0.03,-0.01,0.13,0.04,
14:35:44:706,-0.01,0.04,-0.03,-0.01,0.13,0.04,
14:35:44:706,-0.01,0.04,-0.03,-0.04,0.13,0.02,
14:35:44:708,-0.01,0.04,-0.03,-0.04,0.13,0.02,
14:35:44:710,-0.01,0.04,-0.03,-0.08,0.13,0.04,
14:35:44:710,-0.00,0.04,-0.02,-0.08,0.13,0.04,
14:35:44:712,-0.01,0.03,-0.02,-0.08,0.13,0.04,
14:35:44:714,-0.01,0.03,-0.02,-0.08,0.13,0.04,
14:35:44:714,-0.01,0.03,-0.02,-0.05,0.12,0.07,
14:35:44:717,-0.00,0.03,-0.02,-0.05,0.12,0.07,
14:35:44:721,-0.00,0.03,-0.02,-0.07,0.12,0.08,
14:35:44:721,-0.00,0.03,-0.02,-0.07,0.12,0.08,
14:35:44:722,-0.00,0.03,-0.02,-0.07,0.12,0.08,
14:35:44:722,-0.00,0.03,-0.02,-0.12,0.12,0.06,
14:35:44:722,0.00,0.03,-0.02,-0.12,0.12,0.06,
14:35:44:724,0.00,0.03,-0.02,-0.12,0.12,0.06,
14:35:44:727,0.01,0.03,-0.01,-0.12,0.12,0.06,
14:35:44:727,0.01,0.03,-0.01,-0.09,0.12,0.07,
14:35:44:728,0.01,0.02,-0.01,-0.09,0.12,0.07,
14:35:44:731,0.01,0.02,-0.01,-0.07,0.13,0.10,
14:35:44:732,0.01,0.02,-0.01,-0.07,0.13,0.10,
14:35:44:732,0.01,0.01,-0.01,-0.07,0.13,0.10,
14:35:44:734,0.01,0.01,-0.01,-0.07,0.12,0.13,
14:35:44:734,0.01,0.00,-0.01,-0.07,0.12,0.13,
14:35:44:736,0.01,-0.00,-0.01,-0.07,0.12,0.13,
14:35:44:738,0.02,-0.00,-0.01,-0.07,0.12,0.13,
14:35:44:738,0.02,-0.00,-0.01,-0.09,0.10,0.16,
14:35:44:739,0.02,-0.00,-0.00,-0.09,0.10,0.16,
14:35:44:742,0.03,-0.00,-0.00,-0.09,0.10,0.16,
14:35:44:742,0.03,-0.00,-0.00,-0.13,0.08,0.19,
14:35:44:744,0.03,-0.00,0.00,-0.13,0.08,0.19,
14:35:44:747,0.03,0.00,0.01,-0.13,0.08,0.19,
14:35:44:747,0.03,0.00,0.01,-0.18,0.04,0.20,
14:35:44:748,0.03,0.01,0.01,-0.18,0.04,0.20,
14:35:44:751,0.03,0.01,0.01,-0.20,0.01,0.19,
14:35:44:752,0.03,0.01,0.01,-0.20,0.01,0.19,
14:35:44:753,0.04,0.02,0.01,-0.20,0.01,0.19,
14:35:44:754,0.04,0.02,0.01,-0.17,-0.02,0.20,
14:35:44:754,0.04,0.02,0.01,-0.17,-0.02,0.20,
14:35:44:756,0.05,0.02,0.01,-0.17,-0.02,0.20,
14:35:44:759,0.04,0.02,0.01,-0.17,-0.02,0.20,
14:35:44:759,0.04,0.02,0.01,-0.12,-0.04,0.17,
14:35:44:760,0.05,0.03,0.01,-0.12,-0.04,0.17,
14:35:44:763,0.05,0.03,0.00,-0.12,-0.04,0.17,
14:35:44:763,0.05,0.03,0.00,-0.02,-0.05,0.10,
14:35:44:764,0.05,0.03,0.00,-0.02,-0.05,0.10,
14:35:44:766,0.05,0.03,0.00,0.08,-0.08,0.04,
14:35:44:767,0.04,0.03,-0.00,0.08,-0.08,0.04,
14:35:44:768,0.04,0.03,-0.01,0.08,-0.08,0.04,
14:35:44:775,0.04,0.02,-0.01,0.08,-0.08,0.04,
14:35:44:776,0.04,0.02,-0.01,0.16,-0.10,-0.02,
14:35:44:786,0.04,0.02,-0.01,0.16,-0.10,-0.02,
14:35:44:787,0.04,0.02,-0.01,0.18,-0.11,-0.07,
14:35:44:787,0.03,0.03,-0.02,0.18,-0.11,-0.07,
14:35:44:787,0.03,0.03,-0.02,0.18,-0.11,-0.07,
14:35:44:788,0.03,0.03,-0.02,0.16,-0.11,-0.11,
14:35:44:788,0.03,0.03,-0.02,0.16,-0.11,-0.11,
14:35:44:788,0.02,0.03,-0.02,0.16,-0.11,-0.11,
14:35:44:789,0.02,0.03,-0.02,0.16,-0.11,-0.11,
14:35:44:789,0.02,0.03,-0.02,0.13,-0.11,-0.13,
14:35:44:789,0.01,0.03,-0.02,0.13,-0.11,-0.13,
14:35:44:790,0.01,0.03,-0.02,0.07,-0.08,-0.14,
14:35:44:814,0.01,0.03,-0.02,0.07,-0.08,-0.14,
14:35:44:814,0.00,0.02,-0.02,0.07,-0.08,-0.14,
14:35:44:815,0.00,0.02,-0.02,0.02,-0.06,-0.17,
14:35:44:815,0.00,0.01,-0.03,0.02,-0.06,-0.17,
14:35:44:816,-0.01,0.01,-0.03,0.02,-0.06,-0.17,
14:35:44:816,-0.01,0.01,-0.03,0.07,-0.05,-0.19,
14:35:44:816,-0.01,0.00,-0.03,0.07,-0.05,-0.19,
14:35:44:817,-0.01,0.00,-0.04,0.07,-0.05,-0.19,
14:35:44:817,-0.01,0.00,-0.04,0.16,-0.04,-0.17,
14:35:44:817,-0.02,0.00,-0.04,0.16,-0.04,-0.17,
14:35:44:817,-0.01,0.00,-0.04,0.16,-0.04,-0.17,
14:35:44:818,-0.01,0.00,-0.04,0.10,-0.02,-0.14,
14:35:44:818,-0.01,0.00,-0.04,0.10,-0.02,-0.14,
14:35:44:818,-0.01,0.01,-0.04,0.10,-0.02,-0.14,
14:35:44:818,-0.01,0.00,-0.04,0.10,-0.02,-0.14,
14:35:44:819,-0.01,0.00,-0.04,-0.01,0.00,-0.10,
14:35:44:819,-0.02,-0.00,-0.05,-0.01,0.00,-0.10,
14:35:44:819,-0.02,-0.00,-0.05,-0.07,0.03,-0.04,
14:35:44:819,-0.02,-0.01,-0.05,-0.07,0.03,-0.04,
14:35:44:819,-0.02,-0.00,-0.05,-0.07,0.03,-0.04,
14:35:44:820,-0.02,-0.00,-0.05,0.01,0.01,0.01,
14:35:44:820,-0.02,0.00,-0.06,0.01,0.01,0.01,
14:35:44:820,-0.02,0.01,-0.06,0.01,0.01,0.01,
14:35:44:822,-0.02,0.01,-0.06,0.07,0.04,0.02,
14:35:44:822,-0.02,0.01,-0.06,0.07,0.04,0.02,
14:35:44:823,-0.02,0.02,-0.06,0.07,0.04,0.02,
14:35:44:823,-0.02,0.02,-0.06,0.04,0.03,0.00,
14:35:44:823,-0.02,0.02,-0.07,0.04,0.03,0.00,
14:35:44:826,-0.02,0.02,-0.07,0.04,0.03,0.00,
14:35:44:826,-0.02,0.02,-0.07,0.06,0.01,-0.05,
14:35:44:826,-0.02,0.02,-0.07,0.06,0.01,-0.05,
14:35:44:828,-0.02,0.02,-0.07,0.06,0.01,-0.05,
14:35:44:831,-0.02,0.02,-0.07,0.02,0.02,-0.08,
14:35:44:831,-0.02,0.01,-0.08,0.02,0.02,-0.08,
14:35:44:832,-0.02,0.01,-0.08,0.02,0.02,-0.08,
14:35:44:834,-0.02,0.01,-0.08,0.01,0.02,-0.05,
14:35:44:835,-0.03,0.01,-0.08,0.01,0.02,-0.05,
14:35:44:836,-0.03,0.01,-0.08,0.01,0.02,-0.05,
14:35:44:838,-0.03,0.00,-0.08,0.01,0.02,-0.05,
14:35:44:838,-0.03,0.00,-0.08,0.04,0.03,-0.00,
14:35:44:842,-0.03,-0.00,-0.09,0.04,0.03,-0.00,
14:35:44:842,-0.03,-0.00,-0.09,0.04,0.03,-0.00,
14:35:44:842,-0.03,-0.00,-0.09,0.08,0.03,0.00,
14:35:44:844,-0.03,-0.01,-0.09,0.08,0.03,0.00,
14:35:44:848,-0.03,-0.01,-0.09,0.08,0.03,0.01,
14:35:44:848,-0.03,-0.01,-0.09,0.08,0.03,0.01,
14:35:44:849,-0.03,-0.01,-0.09,0.08,0.03,0.01,
14:35:44:852,-0.03,-0.01,-0.09,0.04,0.04,0.03,
14:35:44:852,-0.03,-0.02,-0.09,0.04,0.04,0.03,
14:35:44:853,-0.03,-0.02,-0.09,0.04,0.04,0.03,
14:35:44:854,-0.03,-0.02,-0.09,0.00,0.04,0.07,
14:35:44:855,-0.03,-0.02,-0.09,0.00,0.04,0.07,
14:35:44:857,-0.03,-0.02,-0.09,0.00,0.04,0.07,
14:35:44:858,-0.03,-0.02,-0.09,-0.04,0.04,0.11,
14:35:44:859,-0.03,-0.03,-0.09,-0.04,0.04,0.11,
14:35:44:861,-0.02,-0.03,-0.08,-0.04,0.04,0.11,
14:35:44:862,-0.02,-0.03,-0.08,-0.04,0.04,0.11,
14:35:44:862,-0.02,-0.03,-0.08,-0.06,0.04,0.12,
14:35:44:863,-0.02,-0.03,-0.08,-0.06,0.04,0.12,
14:35:44:873,-0.02,-0.03,-0.08,-0.06,0.04,0.12,
14:35:44:874,-0.02,-0.03,-0.08,-0.10,0.04,0.14,
14:35:44:875,-0.01,-0.03,-0.07,-0.10,0.04,0.14,
14:35:44:875,-0.01,-0.03,-0.07,-0.10,0.04,0.14,
14:35:44:875,-0.01,-0.03,-0.07,-0.13,0.05,0.15,
14:35:44:876,-0.01,-0.04,-0.07,-0.13,0.05,0.15,
14:35:44:877,-0.00,-0.04,-0.06,-0.13,0.05,0.15,
14:35:44:877,-0.00,-0.04,-0.06,-0.15,0.04,0.16,
14:35:44:878,-0.00,-0.04,-0.06,-0.15,0.04,0.16,
14:35:44:886,0.00,-0.04,-0.06,-0.15,0.04,0.16,
14:35:44:886,0.00,-0.04,-0.06,-0.17,0.03,0.18,
14:35:44:887,0.01,-0.04,-0.05,-0.17,0.03,0.18,
14:35:44:887,0.01,-0.04,-0.05,-0.18,0.03,0.22,
14:35:44:887,0.01,-0.05,-0.05,-0.18,0.03,0.22,
14:35:44:888,0.02,-0.05,-0.05,-0.18,0.03,0.22,
14:35:44:888,0.02,-0.05,-0.05,-0.20,0.05,0.26,
14:35:44:888,0.02,-0.05,-0.05,-0.20,0.05,0.26,
14:35:44:888,0.03,-0.05,-0.04,-0.20,0.05,0.26,
14:35:44:901,0.03,-0.05,-0.04,-0.21,0.06,0.28,
14:35:44:902,0.03,-0.04,-0.04,-0.21,0.06,0.28,
14:35:44:902,0.04,-0.04,-0.04,-0.21,0.06,0.28,
14:35:44:902,0.04,-0.04,-0.04,-0.20,0.07,0.30,
14:35:44:903,0.04,-0.04,-0.03,-0.20,0.07,0.30,
14:35:44:903,0.05,-0.04,-0.03,-0.20,0.07,0.30,
14:35:44:904,0.05,-0.04,-0.03,-0.18,0.06,0.31,
14:35:44:904,0.06,-0.03,-0.03,-0.18,0.06,0.31,
14:35:44:904,0.06,-0.03,-0.03,-0.18,0.06,0.31,
14:35:44:905,0.06,-0.03,-0.03,-0.14,0.08,0.29,
14:35:44:905,0.07,-0.03,-0.03,-0.14,0.08,0.29,
14:35:44:905,0.07,-0.03,-0.03,-0.14,0.08,0.29,
14:35:44:906,0.07,-0.03,-0.03,-0.10,0.08,0.27,
14:35:44:907,0.07,-0.02,-0.03,-0.10,0.08,0.27,
14:35:44:909,0.08,-0.02,-0.03,-0.10,0.08,0.27,
14:35:44:910,0.08,-0.02,-0.03,-0.06,0.06,0.24,
14:35:44:910,0.08,-0.02,-0.02,-0.06,0.06,0.24,
14:35:44:912,0.09,-0.03,-0.03,-0.06,0.06,0.24,
14:35:44:914,0.09,-0.03,-0.03,-0.03,0.04,0.18,
14:35:44:915,0.09,-0.02,-0.03,-0.03,0.04,0.18,
14:35:44:918,0.09,-0.02,-0.02,-0.03,0.04,0.18,
14:35:44:922,0.09,-0.02,-0.02,-0.03,0.02,0.12,
14:35:44:922,0.10,-0.02,-0.02,-0.03,0.02,0.12,
14:35:44:934,0.10,-0.02,-0.02,-0.03,0.02,0.12,
14:35:44:934,0.10,-0.02,-0.02,-0.03,0.01,0.05,
14:35:44:935,0.10,-0.02,-0.02,-0.03,0.00,-0.02,
14:35:44:935,0.10,-0.02,-0.02,-0.03,0.00,-0.02,
14:35:44:936,0.10,-0.02,-0.02,-0.03,0.00,-0.02,
14:35:44:936,0.10,-0.01,-0.02,-0.03,0.00,-0.02,
14:35:44:936,0.10,-0.01,-0.02,-0.03,0.00,-0.02,
14:35:44:936,0.10,-0.01,-0.02,-0.04,-0.01,-0.10,
14:35:44:936,0.10,-0.01,-0.01,-0.04,-0.01,-0.10,
14:35:44:936,0.10,-0.01,-0.01,-0.04,-0.01,-0.10,
14:35:44:937,0.10,-0.01,-0.01,-0.05,-0.03,-0.19,
14:35:44:937,0.09,-0.01,-0.01,-0.05,-0.03,-0.19,
14:35:44:937,0.09,-0.01,-0.01,-0.05,-0.03,-0.19,
14:35:44:940,0.09,-0.01,-0.01,-0.07,-0.05,-0.27,
14:35:44:940,0.08,-0.01,-0.01,-0.07,-0.05,-0.27,
14:35:44:941,0.08,-0.01,-0.01,-0.07,-0.05,-0.27,
14:35:44:942,0.08,-0.01,-0.01,-0.08,-0.09,-0.36,
14:35:44:942,0.07,-0.01,-0.00,-0.08,-0.09,-0.36,
14:35:44:943,0.07,-0.01,-0.00,-0.08,-0.09,-0.36,
14:35:44:946,0.06,-0.02,-0.00,-0.08,-0.09,-0.36,
14:35:44:946,0.06,-0.02,-0.00,-0.07,-0.11,-0.44,
14:35:44:948,0.05,-0.01,-0.00,-0.07,-0.11,-0.44,
14:35:44:951,0.05,-0.01,-0.00,-0.04,-0.13,-0.52,
14:35:44:952,0.05,-0.02,0.00,-0.04,-0.13,-0.52,
14:35:44:952,0.05,-0.02,0.00,-0.04,-0.13,-0.52,
14:35:44:954,0.05,-0.02,0.00,-0.01,-0.16,-0.56,
14:35:44:954,0.04,-0.02,0.00,-0.01,-0.16,-0.56,
14:35:44:956,0.03,-0.02,0.00,-0.01,-0.16,-0.56,
14:35:44:958,0.03,-0.02,0.00,-0.00,-0.18,-0.58,
14:35:44:959,0.02,-0.03,0.00,-0.00,-0.18,-0.58,
14:35:44:960,0.02,-0.03,0.00,-0.00,-0.18,-0.58,
14:35:44:962,0.02,-0.03,0.00,-0.00,-0.20,-0.60,
14:35:44:962,0.01,-0.03,0.01,-0.00,-0.20,-0.60,
14:35:44:963,0.00,-0.03,0.01,-0.00,-0.20,-0.60,
14:35:44:968,0.00,-0.03,0.01,-0.00,-0.21,-0.59,
14:35:44:968,-0.00,-0.03,0.01,-0.00,-0.21,-0.59,
14:35:44:968,-0.01,-0.03,0.01,-0.00,-0.21,-0.59,
14:35:44:975,-0.01,-0.03,0.01,-0.01,-0.22,-0.58,
14:35:44:975,-0.02,-0.03,0.01,-0.01,-0.22,-0.58,
14:35:44:976,-0.02,-0.03,0.00,-0.01,-0.22,-0.58,
14:35:44:976,-0.03,-0.03,0.00,-0.01,-0.22,-0.58,
14:35:44:976,-0.03,-0.03,0.00,0.00,-0.22,-0.55,
14:35:44:976,-0.03,-0.03,0.00,0.00,-0.22,-0.55,
14:35:44:978,-0.03,-0.03,0.00,0.02,-0.21,-0.52,
14:35:44:978,-0.04,-0.03,0.00,0.02,-0.21,-0.52,
14:35:44:979,-0.04,-0.03,0.00,0.02,-0.21,-0.52,
14:35:44:982,-0.05,-0.03,0.00,0.02,-0.21,-0.52,
14:35:44:982,-0.05,-0.03,0.00,0.03,-0.20,-0.47,
14:35:44:984,-0.06,-0.03,-0.00,0.03,-0.20,-0.47,
14:35:44:986,-0.06,-0.03,-0.00,0.06,-0.17,-0.40,
14:35:44:987,-0.06,-0.03,-0.00,0.06,-0.17,-0.40,
14:35:44:989,-0.07,-0.03,-0.00,0.06,-0.17,-0.40,
14:35:44:990,-0.07,-0.03,-0.00,0.06,-0.17,-0.40,
14:35:44:991,-0.07,-0.03,-0.00,0.05,-0.14,-0.33,
14:35:44:991,-0.07,-0.03,-0.00,0.05,-0.14,-0.33,
14:35:44:994,-0.07,-0.03,-0.00,-0.02,-0.12,-0.26,
14:35:44:994,-0.07,-0.03,-0.00,-0.02,-0.12,-0.26,
14:35:44:996,-0.07,-0.03,-0.00,-0.02,-0.12,-0.26,
14:35:45:001,-0.07,-0.03,-0.01,-0.02,-0.12,-0.26,
14:35:45:001,-0.07,-0.03,-0.01,-0.05,-0.09,-0.19,
14:35:45:001,-0.07,-0.03,-0.01,-0.05,-0.09,-0.19,
14:35:45:002,-0.08,-0.03,-0.01,-0.05,-0.09,-0.19,
14:35:45:003,-0.08,-0.03,-0.01,-0.04,-0.05,-0.11,
14:35:45:004,-0.08,-0.02,-0.01,-0.04,-0.05,-0.11,
14:35:45:006,-0.08,-0.02,-0.01,-0.00,-0.04,-0.05,
14:35:45:007,-0.08,-0.02,-0.01,-0.00,-0.04,-0.05,
14:35:45:008,-0.08,-0.03,-0.01,-0.00,-0.04,-0.05,
14:35:45:010,-0.08,-0.03,-0.01,-0.00,-0.04,-0.05,
14:35:45:010,-0.08,-0.03,-0.01,-0.01,-0.04,-0.02,
14:35:45:012,-0.08,-0.04,-0.02,-0.01,-0.04,-0.02,
14:35:45:015,-0.09,-0.04,-0.02,-0.01,-0.04,-0.02,
14:35:45:016,-0.09,-0.04,-0.02,0.00,-0.02,0.01,
14:35:45:019,-0.09,-0.04,-0.02,0.00,-0.02,0.01,
14:35:45:020,-0.09,-0.04,-0.02,0.00,-0.02,0.01,
14:35:45:020,-0.09,-0.04,-0.02,0.12,0.04,0.02,
14:35:45:021,-0.10,-0.04,-0.03,0.12,0.04,0.02,
14:35:45:023,-0.10,-0.05,-0.03,0.12,0.04,0.02,
14:35:45:024,-0.10,-0.05,-0.03,0.13,0.12,-0.01,
14:35:45:024,-0.10,-0.05,-0.04,0.13,0.12,-0.01,
14:35:45:027,-0.11,-0.05,-0.04,0.13,0.12,-0.01,
14:35:45:028,-0.11,-0.05,-0.04,0.04,0.23,-0.05,
14:35:45:029,-0.11,-0.04,-0.04,0.04,0.23,-0.05,
14:35:45:030,-0.11,-0.04,-0.04,0.12,0.13,-0.02,
14:35:45:031,-0.11,-0.03,-0.04,0.12,0.13,-0.02,
14:35:45:033,-0.11,-0.02,-0.04,0.12,0.13,-0.02,
14:35:45:037,-0.10,-0.02,-0.03,0.12,0.13,-0.02,
14:35:45:038,-0.10,-0.02,-0.03,-0.04,0.02,0.01,
14:35:45:039,-0.11,-0.01,-0.03,-0.04,0.02,0.01,
14:35:45:039,-0.11,-0.01,-0.03,-0.19,0.03,0.01,
14:35:45:039,-0.11,-0.01,-0.03,-0.19,0.03,0.01,
14:35:45:040,-0.11,-0.00,-0.03,-0.19,0.03,0.01,
14:35:45:043,-0.11,-0.00,-0.04,-0.19,0.03,0.01,
14:35:45:044,-0.11,-0.00,-0.04,-0.19,0.14,-0.01,
14:35:45:044,-0.11,-0.00,-0.04,-0.19,0.14,-0.01,
14:35:45:047,-0.11,-0.00,-0.04,-0.11,0.15,-0.02,
14:35:45:048,-0.11,-0.01,-0.04,-0.11,0.15,-0.02,
14:35:45:048,-0.11,-0.01,-0.04,-0.11,0.15,-0.02,
14:35:45:053,-0.11,-0.01,-0.05,-0.11,0.15,-0.02,
14:35:45:054,-0.11,-0.01,-0.05,-0.04,0.13,-0.00,
14:35:45:054,-0.11,-0.01,-0.05,-0.04,0.13,-0.00,
14:35:45:087,-0.11,-0.01,-0.05,0.02,0.13,-0.00,
14:35:45:088,-0.12,-0.01,-0.05,0.02,0.13,-0.00,
14:35:45:088,-0.12,-0.02,-0.05,0.02,0.13,-0.00,
14:35:45:089,-0.12,-0.02,-0.05,0.05,0.16,-0.00,
14:35:45:089,-0.12,-0.01,-0.06,0.05,0.16,-0.00,
14:35:45:090,-0.12,-0.01,-0.06,0.05,0.16,-0.00,
14:35:45:090,-0.12,-0.01,-0.06,0.05,0.16,-0.00,
14:35:45:092,-0.12,-0.01,-0.06,0.05,0.18,0.01,
14:35:45:093,-0.12,-0.01,-0.06,0.05,0.18,0.01,
14:35:45:094,-0.12,-0.01,-0.06,0.05,0.17,0.05,
14:35:45:094,-0.12,-0.02,-0.06,0.05,0.17,0.05,
14:35:45:094,-0.12,-0.02,-0.06,0.05,0.17,0.05,
14:35:45:095,-0.12,-0.02,-0.06,0.03,0.14,0.08,
14:35:45:095,-0.12,-0.02,-0.06,0.03,0.14,0.08,
14:35:45:095,-0.12,-0.02,-0.06,0.03,0.14,0.08,
14:35:45:095,-0.12,-0.02,-0.06,0.04,0.15,0.13,
14:35:45:096,-0.12,-0.02,-0.07,0.04,0.15,0.13,
14:35:45:096,-0.11,-0.02,-0.06,0.04,0.15,0.13,
14:35:45:097,-0.11,-0.02,-0.06,0.00,0.16,0.14,
14:35:45:097,-0.11,-0.02,-0.07,0.00,0.16,0.14,
14:35:45:097,-0.10,-0.03,-0.06,0.00,0.16,0.14,
14:35:45:097,-0.10,-0.03,-0.06,-0.08,0.13,0.19,
14:35:45:098,-0.10,-0.03,-0.06,-0.08,0.13,0.19,
14:35:45:098,-0.10,-0.03,-0.06,-0.08,0.13,0.19,
14:35:45:098,-0.09,-0.03,-0.05,-0.08,0.13,0.19,
14:35:45:098,-0.09,-0.03,-0.05,-0.09,0.13,0.24,
14:35:45:099,-0.08,-0.03,-0.05,-0.09,0.13,0.24,
14:35:45:100,-0.08,-0.03,-0.05,-0.14,0.13,0.25,
14:35:45:101,-0.08,-0.03,-0.05,-0.14,0.13,0.25,
14:35:45:101,-0.08,-0.03,-0.05,-0.14,0.13,0.25,
14:35:45:101,-0.08,-0.03,-0.05,-0.20,0.10,0.26,
14:35:45:102,-0.07,-0.03,-0.04,-0.20,0.10,0.26,
14:35:45:102,-0.07,-0.03,-0.04,-0.20,0.10,0.26,
14:35:45:102,-0.07,-0.03,-0.04,-0.20,0.10,0.26,
14:35:45:103,-0.07,-0.03,-0.04,-0.20,0.08,0.27,
14:35:45:103,-0.06,-0.03,-0.03,-0.20,0.08,0.27,
14:35:45:103,-0.06,-0.03,-0.03,-0.20,0.08,0.27,
14:35:45:104,-0.06,-0.03,-0.03,-0.20,0.09,0.26,
14:35:45:104,-0.05,-0.03,-0.02,-0.20,0.09,0.26,
14:35:45:111,-0.05,-0.03,-0.02,-0.20,0.10,0.25,
14:35:45:113,-0.05,-0.03,-0.02,-0.20,0.10,0.25,
14:35:45:113,-0.05,-0.04,-0.02,-0.20,0.10,0.25,
14:35:45:115,-0.05,-0.04,-0.02,-0.20,0.10,0.25,
14:35:45:116,-0.05,-0.04,-0.02,-0.17,0.10,0.24,
14:35:45:116,-0.05,-0.05,-0.02,-0.17,0.10,0.24,
14:35:45:116,-0.05,-0.05,-0.02,-0.11,0.07,0.22,
14:35:45:117,-0.05,-0.05,-0.02,-0.11,0.07,0.22,
14:35:45:117,-0.04,-0.05,-0.02,-0.11,0.07,0.22,
14:35:45:125,-0.04,-0.05,-0.02,-0.02,0.05,0.20,
14:35:45:126,-0.04,-0.05,-0.02,-0.02,0.05,0.20,
14:35:45:126,-0.04,-0.06,-0.02,-0.02,0.05,0.20,
14:35:45:126,-0.04,-0.05,-0.02,-0.02,0.05,0.20,
14:35:45:126,-0.04,-0.05,-0.02,0.01,0.01,0.19,
14:35:45:126,-0.03,-0.05,-0.02,0.01,0.01,0.19,
14:35:45:127,-0.03,-0.05,-0.02,-0.02,-0.04,0.20,
14:35:45:127,-0.03,-0.05,-0.02,-0.02,-0.04,0.20,
14:35:45:128,-0.03,-0.05,-0.02,-0.02,-0.04,0.20,
14:35:45:130,-0.03,-0.04,-0.02,-0.02,-0.04,0.20,
14:35:45:130,-0.03,-0.04,-0.02,-0.03,-0.07,0.19,
14:35:45:133,-0.02,-0.04,-0.01,-0.03,-0.07,0.19,
14:35:45:134,-0.02,-0.04,-0.01,-0.03,-0.07,0.19,
14:35:45:134,-0.02,-0.04,-0.01,-0.06,-0.09,0.17,
14:35:45:136,-0.02,-0.03,-0.01,-0.06,-0.09,0.17,
14:35:45:138,-0.02,-0.03,-0.01,-0.09,-0.06,0.15,
14:35:45:138,-0.02,-0.03,-0.01,-0.09,-0.06,0.15,
14:35:45:141,-0.02,-0.02,-0.01,-0.09,-0.06,0.15,
14:35:45:144,-0.01,-0.02,-0.01,-0.09,-0.06,0.15,
14:35:45:144,-0.01,-0.02,-0.01,-0.10,-0.05,0.13,
14:35:45:144,-0.01,-0.01,-0.01,-0.10,-0.05,0.13,
14:35:45:147,-0.01,-0.01,-0.01,-0.10,-0.02,0.10,
14:35:45:148,-0.01,-0.01,-0.01,-0.10,-0.02,0.10,
14:35:45:149,-0.01,-0.00,-0.01,-0.10,-0.02,0.10,
14:35:45:152,-0.01,-0.00,-0.02,-0.10,-0.02,0.10,
14:35:45:153,-0.01,-0.00,-0.02,-0.04,0.02,0.05,
14:35:45:153,-0.01,-0.01,-0.02,-0.04,0.02,0.05,
14:35:45:154,-0.01,-0.01,-0.02,0.05,0.05,0.02,
14:35:45:154,-0.01,-0.00,-0.02,0.05,0.05,0.02,
14:35:45:158,-0.02,-0.00,-0.03,0.05,0.05,0.02,
14:35:45:158,-0.01,-0.00,-0.03,0.05,0.05,0.02,
14:35:45:158,-0.01,-0.00,-0.03,0.12,0.07,0.03,
14:35:45:161,-0.02,-0.00,-0.04,0.12,0.07,0.03,
14:35:45:162,-0.02,-0.01,-0.04,0.12,0.07,0.03,
14:35:45:164,-0.02,-0.01,-0.04,0.18,0.10,0.04,
14:35:45:164,-0.02,-0.00,-0.05,0.18,0.10,0.04,
14:35:45:172,-0.02,-0.00,-0.05,0.21,0.11,0.06,
14:35:45:173,-0.01,-0.01,-0.06,0.21,0.11,0.06,
14:35:45:174,-0.01,-0.01,-0.06,0.21,0.11,0.06,
14:35:45:174,-0.01,-0.01,-0.07,0.21,0.11,0.06,
14:35:45:174,-0.01,-0.01,-0.07,0.23,0.08,0.07,
14:35:45:175,-0.01,-0.01,-0.07,0.23,0.08,0.07,
14:35:45:176,-0.01,-0.01,-0.07,0.28,0.04,0.09,
14:35:45:176,-0.00,-0.01,-0.07,0.28,0.04,0.09,
14:35:45:177,-0.00,-0.00,-0.07,0.28,0.04,0.09,
14:35:45:179,-0.00,-0.00,-0.07,0.28,0.06,0.15,
14:35:45:180,0.00,-0.00,-0.08,0.28,0.06,0.15,
14:35:45:180,0.01,0.00,-0.08,0.28,0.06,0.15,
14:35:45:204,0.01,0.01,-0.07,0.28,0.06,0.15,
14:35:45:205,0.01,0.01,-0.07,0.12,0.05,0.21,
14:35:45:206,0.02,0.01,-0.07,0.12,0.05,0.21,
14:35:45:207,0.02,0.02,-0.07,0.12,0.05,0.21,
14:35:45:231,0.02,0.02,-0.07,-0.03,0.07,0.23,
14:35:45:231,0.03,0.02,-0.06,-0.03,0.07,0.23,
14:35:45:231,0.03,0.02,-0.06,-0.12,0.13,0.23,
14:35:45:232,0.03,0.02,-0.06,-0.12,0.13,0.23,
14:35:45:232,0.03,0.02,-0.06,-0.12,0.13,0.23,
14:35:45:232,0.03,0.02,-0.06,-0.13,0.17,0.23,
14:35:45:232,0.04,0.01,-0.06,-0.13,0.17,0.23,
14:35:45:233,0.04,0.01,-0.06,-0.13,0.17,0.23,
14:35:45:233,0.04,0.01,-0.06,-0.13,0.17,0.23,
14:35:45:233,0.04,0.01,-0.06,-0.13,0.17,0.22,
14:35:45:233,0.04,0.01,-0.05,-0.13,0.17,0.22,
14:35:45:234,0.04,0.01,-0.05,-0.10,0.14,0.19,
14:35:45:234,0.05,0.01,-0.05,-0.10,0.14,0.19,
14:35:45:234,0.05,0.00,-0.05,-0.10,0.14,0.19,
14:35:45:234,0.05,0.00,-0.05,-0.09,0.08,0.12,
14:35:45:235,0.05,0.00,-0.05,-0.09,0.08,0.12,
14:35:45:235,0.05,0.00,-0.04,-0.09,0.08,0.12,
14:35:45:235,0.05,0.00,-0.04,-0.09,0.03,0.07,
14:35:45:236,0.05,-0.00,-0.04,-0.09,0.03,0.07,
14:35:45:238,0.04,-0.01,-0.04,-0.09,0.03,0.07,
14:35:45:238,0.04,-0.01,-0.04,-0.12,-0.00,0.03,
14:35:45:239,0.05,-0.01,-0.03,-0.12,-0.00,0.03,
14:35:45:239,0.05,-0.02,-0.03,-0.12,-0.00,0.03,
14:35:45:239,0.05,-0.02,-0.03,-0.13,-0.04,-0.01,
14:35:45:240,0.04,-0.02,-0.03,-0.13,-0.04,-0.01,
14:35:45:240,0.04,-0.02,-0.03,-0.13,-0.04,-0.01,
14:35:45:240,0.04,-0.02,-0.03,-0.10,-0.06,-0.06,
14:35:45:241,0.04,-0.02,-0.03,-0.10,-0.06,-0.06,
14:35:45:241,0.04,-0.02,-0.02,-0.10,-0.06,-0.06,
14:35:45:241,0.04,-0.02,-0.02,-0.09,-0.06,-0.07,
14:35:45:242,0.03,-0.02,-0.02,-0.09,-0.06,-0.07,
14:35:45:242,0.03,-0.02,-0.01,-0.09,-0.06,-0.07,
14:35:45:242,0.03,-0.02,-0.01,-0.14,-0.07,-0.07,
14:35:45:243,0.03,-0.02,-0.01,-0.14,-0.07,-0.07,
14:35:45:243,0.03,-0.02,-0.01,-0.14,-0.07,-0.07,
14:35:45:243,0.03,-0.02,-0.01,-0.14,-0.07,-0.07,
14:35:45:244,0.03,-0.02,-0.01,-0.18,-0.07,-0.08,
14:35:45:244,0.03,-0.02,-0.01,-0.18,-0.07,-0.08,
14:35:45:244,0.03,-0.02,-0.01,-0.19,-0.06,-0.10,
14:35:45:245,0.03,-0.02,-0.00,-0.19,-0.06,-0.10,
14:35:45:245,0.03,-0.01,-0.00,-0.19,-0.06,-0.10,
14:35:45:245,0.03,-0.01,-0.00,-0.12,-0.05,-0.10,
14:35:45:246,0.03,-0.01,0.00,-0.12,-0.05,-0.10,
14:35:45:246,0.03,-0.02,0.01,-0.12,-0.05,-0.10,
14:35:45:246,0.03,-0.02,0.01,-0.05,-0.02,-0.08,
14:35:45:247,0.02,-0.02,0.01,-0.05,-0.02,-0.08,
14:35:45:253,0.02,-0.02,0.02,-0.05,-0.02,-0.08,
14:35:45:254,0.02,-0.02,0.02,-0.12,0.04,-0.07,
14:35:45:255,0.02,-0.02,0.02,-0.12,0.04,-0.07,
14:35:45:255,0.02,-0.03,0.02,-0.12,0.04,-0.07,
14:35:45:255,0.02,-0.03,0.02,-0.16,0.09,-0.02,
14:35:45:256,0.01,-0.03,0.02,-0.16,0.09,-0.02,
14:35:45:257,0.01,-0.04,0.02,-0.16,0.09,-0.02,
14:35:45:258,0.01,-0.04,0.02,-0.16,0.19,0.04,
14:35:45:258,0.01,-0.05,0.02,-0.16,0.19,0.04,
14:35:45:259,0.02,-0.06,0.03,-0.16,0.19,0.04,
14:35:45:262,0.01,-0.07,0.03,-0.16,0.19,0.04,
14:35:45:263,0.01,-0.07,0.03,-0.21,0.24,0.10,
14:35:45:263,0.02,-0.07,0.03,-0.21,0.24,0.10,
14:35:45:266,0.02,-0.07,0.03,-0.13,0.32,0.24,
14:35:45:267,0.02,-0.07,0.03,-0.13,0.32,0.24,
14:35:45:268,0.02,-0.08,0.03,-0.13,0.32,0.24,
14:35:45:270,0.02,-0.08,0.03,-0.18,0.51,0.39,
14:35:45:271,0.03,-0.08,0.04,-0.18,0.51,0.39,
14:35:45:273,0.04,-0.09,0.04,-0.18,0.51,0.39,
14:35:45:275,0.05,-0.11,0.05,-0.18,0.51,0.39,
14:35:45:276,0.05,-0.11,0.05,-0.38,0.58,0.57,
14:35:45:276,0.06,-0.13,0.06,-0.38,0.58,0.57,
14:35:45:278,0.06,-0.13,0.06,-0.54,0.63,0.81,
14:35:45:278,0.07,-0.15,0.07,-0.54,0.63,0.81,
14:35:45:281,0.08,-0.17,0.08,-0.54,0.63,0.81,
14:35:45:286,0.08,-0.17,0.08,-0.72,0.78,1.12,
14:35:45:287,0.11,-0.19,0.09,-0.72,0.78,1.12,
14:35:45:296,0.12,-0.22,0.10,-0.72,0.78,1.12,
14:35:45:297,0.12,-0.22,0.10,-0.93,0.94,1.49,
14:35:45:297,0.14,-0.24,0.12,-0.93,0.94,1.49,
14:35:45:297,0.16,-0.26,0.13,-0.93,0.94,1.49,
14:35:45:297,0.16,-0.26,0.13,-1.08,1.05,1.84,
14:35:45:298,0.18,-0.28,0.15,-1.08,1.05,1.84,
14:35:45:298,0.20,-0.29,0.16,-1.08,1.05,1.84,
14:35:45:298,0.22,-0.31,0.18,-1.08,1.05,1.84,
14:35:45:299,0.22,-0.31,0.18,-1.18,1.19,2.14,
14:35:45:299,0.24,-0.34,0.19,-1.18,1.19,2.14,
14:35:45:299,0.24,-0.34,0.19,-1.17,1.35,2.38,
14:35:45:299,0.25,-0.36,0.21,-1.17,1.35,2.38,
14:35:45:300,0.27,-0.39,0.22,-1.17,1.35,2.38,
14:35:45:312,0.28,-0.43,0.23,-1.17,1.35,2.38,
14:35:45:313,0.28,-0.43,0.23,-1.11,1.53,2.56,
14:35:45:313,0.28,-0.47,0.24,-1.11,1.53,2.56,
14:35:45:314,0.28,-0.47,0.24,-0.99,1.71,2.70,
14:35:45:314,0.29,-0.51,0.25,-0.99,1.71,2.70,
14:35:45:314,0.29,-0.56,0.26,-0.99,1.71,2.70,
14:35:45:315,0.29,-0.61,0.26,-0.99,1.71,2.70,
14:35:45:316,0.29,-0.61,0.26,-0.81,1.84,2.78,
14:35:45:316,0.30,-0.67,0.27,-0.81,1.84,2.78,
14:35:45:316,0.30,-0.67,0.27,-0.70,1.98,2.85,
14:35:45:317,0.30,-0.73,0.28,-0.70,1.98,2.85,
14:35:45:317,0.30,-0.78,0.29,-0.70,1.98,2.85,
14:35:45:320,0.30,-0.78,0.29,-0.65,2.07,2.92,
14:35:45:321,0.30,-0.85,0.29,-0.65,2.07,2.92,
14:35:45:348,0.30,-0.91,0.31,-0.65,2.07,2.92,
14:35:45:348,0.29,-0.97,0.32,-0.65,2.07,2.92,
14:35:45:348,0.29,-0.97,0.32,-0.64,2.15,3.11,
14:35:45:349,0.28,-1.05,0.33,-0.64,2.15,3.11,
14:35:45:349,0.28,-1.05,0.33,-0.69,2.22,3.15,
14:35:45:349,0.28,-1.11,0.34,-0.69,2.22,3.15,
14:35:45:349,0.27,-1.18,0.35,-0.69,2.22,3.15,
14:35:45:349,0.27,-1.18,0.35,-0.73,2.27,3.03,
14:35:45:350,0.26,-1.24,0.37,-0.73,2.27,3.03,
14:35:45:350,0.25,-1.30,0.38,-0.73,2.27,3.03,
14:35:45:350,0.25,-1.30,0.38,-0.76,2.27,2.85,
14:35:45:350,0.24,-1.35,0.39,-0.76,2.27,2.85,
14:35:45:351,0.22,-1.40,0.41,-0.76,2.27,2.85,
14:35:45:351,0.22,-1.40,0.41,-0.83,2.18,2.65,
14:35:45:351,0.22,-1.45,0.42,-0.83,2.18,2.65,
14:35:45:351,0.21,-1.50,0.44,-0.83,2.18,2.65,
14:35:45:351,0.21,-1.55,0.45,-0.83,2.18,2.65,
14:35:45:352,0.21,-1.55,0.45,-0.95,2.05,2.36,
14:35:45:352,0.22,-1.61,0.46,-0.95,2.05,2.36,
14:35:45:352,0.24,-1.67,0.47,-0.95,2.05,2.36,
14:35:45:352,0.24,-1.67,0.47,-1.09,1.92,2.11,
14:35:45:352,0.27,-1.74,0.49,-1.09,1.92,2.11,
14:35:45:352,0.27,-1.74,0.49,-1.17,1.80,1.78,
14:35:45:353,0.30,-1.82,0.50,-1.17,1.80,1.78,
14:35:45:353,0.32,-1.93,0.51,-1.17,1.80,1.78,
14:35:45:355,0.31,-2.06,0.52,-1.17,1.80,1.78,
14:35:45:356,0.31,-2.06,0.52,-1.17,1.64,2.21,
14:35:45:356,0.29,-2.21,0.52,-1.17,1.64,2.21,
14:35:45:358,0.26,-2.38,0.53,-1.17,1.64,2.21,
14:35:45:359,0.26,-2.38,0.53,-1.41,1.43,3.30,
14:35:45:360,0.21,-2.56,0.53,-1.41,1.43,3.30,
14:35:45:362,0.21,-2.56,0.53,-1.42,1.01,2.20,
14:35:45:362,0.17,-2.74,0.53,-1.42,1.01,2.20,
14:35:45:365,0.12,-2.95,0.53,-1.42,1.01,2.20,
14:35:45:367,0.12,-2.95,0.53,-1.28,0.47,0.63,
14:35:45:370,0.07,-3.17,0.54,-1.28,0.47,0.63,
14:35:45:370,0.01,-3.40,0.56,-1.28,0.47,0.63,
14:35:45:371,-0.05,-3.63,0.57,-1.28,0.47,0.63,
14:35:45:371,-0.05,-3.63,0.57,-1.46,0.04,0.04,
14:35:45:372,-0.11,-3.84,0.59,-1.46,0.04,0.04,
14:35:45:374,-0.18,-4.04,0.60,-1.46,0.04,0.04,
14:35:45:375,-0.18,-4.04,0.60,-1.67,-0.40,-0.33,
14:35:45:376,-0.24,-4.21,0.62,-1.67,-0.40,-0.33,
14:35:45:379,-0.24,-4.21,0.62,-1.79,-0.76,-0.71,
14:35:45:379,-0.31,-4.35,0.64,-1.79,-0.76,-0.71,
14:35:45:379,-0.37,-4.48,0.66,-1.79,-0.76,-0.71,
14:35:45:385,-0.44,-4.58,0.68,-1.79,-0.76,-0.71,
14:35:45:395,-0.44,-4.58,0.68,-1.93,-0.97,-1.11,
14:35:45:396,-0.49,-4.66,0.70,-1.93,-0.97,-1.11,
14:35:45:397,-0.49,-4.66,0.70,-2.17,-1.14,-1.44,
14:35:45:397,-0.54,-4.72,0.72,-2.17,-1.14,-1.44,
14:35:45:397,-0.58,-4.75,0.74,-2.17,-1.14,-1.44,
14:35:45:398,-0.58,-4.75,0.74,-2.33,-1.13,-1.69,
14:35:45:398,-0.62,-4.77,0.76,-2.33,-1.13,-1.69,
14:35:45:398,-0.64,-4.78,0.80,-2.33,-1.13,-1.69,
14:35:45:399,-0.64,-4.78,0.80,-2.41,-0.98,-1.88,
14:35:45:399,-0.66,-4.77,0.83,-2.41,-0.98,-1.88,
14:35:45:399,-0.67,-4.76,0.88,-2.41,-0.98,-1.88,
14:35:45:400,-0.67,-4.73,0.92,-2.41,-0.98,-1.88,
14:35:45:400,-0.67,-4.73,0.92,-2.63,-0.68,-1.96,
14:35:45:400,-0.67,-4.71,0.96,-2.63,-0.68,-1.96,
14:35:45:406,-0.67,-4.71,0.96,-2.91,-0.43,-1.95,
14:35:45:406,-0.66,-4.67,1.00,-2.91,-0.43,-1.95,
14:35:45:407,-0.65,-4.63,1.04,-2.91,-0.43,-1.95,
14:35:45:407,-0.65,-4.63,1.04,-3.06,-0.32,-1.96,
14:35:45:408,-0.63,-4.56,1.08,-3.06,-0.32,-1.96,
14:35:45:408,-0.61,-4.49,1.11,-3.06,-0.32,-1.96,
14:35:45:411,-0.61,-4.49,1.11,-3.01,-0.27,-2.03,
14:35:45:411,-0.58,-4.41,1.14,-3.01,-0.27,-2.03,
14:35:45:412,-0.55,-4.30,1.17,-3.01,-0.27,-2.03,
14:35:45:414,-0.51,-4.19,1.20,-3.01,-0.27,-2.03,
14:35:45:415,-0.51,-4.19,1.20,-2.90,-0.22,-2.19,
14:35:45:419,-0.47,-4.05,1.23,-2.90,-0.22,-2.19,
14:35:45:420,-0.47,-4.05,1.23,-2.77,-0.19,-2.36,
14:35:45:420,-0.43,-3.91,1.25,-2.77,-0.19,-2.36,
14:35:45:421,-0.39,-3.75,1.28,-2.77,-0.19,-2.36,
14:35:45:423,-0.34,-3.58,1.30,-2.77,-0.19,-2.36,
14:35:45:423,-0.34,-3.58,1.30,-2.59,-0.12,-2.48,
14:35:45:425,-0.29,-3.41,1.33,-2.59,-0.12,-2.48,
14:35:45:426,-0.24,-3.23,1.35,-2.59,-0.12,-2.48,
14:35:45:427,-0.24,-3.23,1.35,-2.36,0.03,-2.59,
14:35:45:427,-0.19,-3.04,1.37,-2.36,0.03,-2.59,
14:35:45:431,-0.19,-3.04,1.37,-2.14,0.09,-2.68,
14:35:45:432,-0.15,-2.85,1.38,-2.14,0.09,-2.68,
14:35:45:432,-0.10,-2.65,1.39,-2.14,0.09,-2.68,
14:35:45:435,-0.07,-2.47,1.40,-2.14,0.09,-2.68,
14:35:45:436,-0.07,-2.47,1.40,-1.90,-0.00,-2.89,
14:35:45:437,-0.03,-2.28,1.41,-1.90,-0.00,-2.89,
14:35:45:439,0.00,-2.10,1.42,-1.90,-0.00,-2.89,
14:35:45:439,0.00,-2.10,1.42,-1.62,-0.06,-3.11,
14:35:45:440,0.03,-1.93,1.42,-1.62,-0.06,-3.11,
14:35:45:443,0.05,-1.77,1.42,-1.62,-0.06,-3.11,
14:35:45:444,0.05,-1.77,1.42,-1.31,-0.20,-3.32,
14:35:45:446,0.06,-1.62,1.41,-1.31,-0.20,-3.32,
14:35:45:447,0.06,-1.62,1.41,-0.96,-0.38,-3.55,
14:35:45:448,0.07,-1.48,1.41,-0.96,-0.38,-3.55,
14:35:45:449,0.07,-1.36,1.40,-0.96,-0.38,-3.55,
14:35:45:452,0.07,-1.25,1.39,-0.96,-0.38,-3.55,
14:35:45:453,0.07,-1.25,1.39,-0.60,-0.52,-3.74,
14:35:45:454,0.06,-1.16,1.38,-0.60,-0.52,-3.74,
14:35:45:482,0.06,-1.16,1.38,-0.27,-0.67,-3.89,
14:35:45:482,0.05,-1.08,1.36,-0.27,-0.67,-3.89,
14:35:45:482,0.04,-1.00,1.34,-0.27,-0.67,-3.89,
14:35:45:483,0.04,-1.00,1.34,0.04,-0.82,-3.96,
14:35:45:483,0.01,-0.94,1.32,0.04,-0.82,-3.96,
14:35:45:483,-0.01,-0.89,1.30,0.04,-0.82,-3.96,
14:35:45:484,-0.01,-0.89,1.30,0.34,-0.89,-4.02,
14:35:45:484,-0.04,-0.85,1.28,0.34,-0.89,-4.02,
14:35:45:484,-0.08,-0.80,1.26,0.34,-0.89,-4.02,
14:35:45:485,-0.08,-0.80,1.26,0.60,-0.91,-4.14,
14:35:45:485,-0.12,-0.76,1.23,0.60,-0.91,-4.14,
14:35:45:486,-0.16,-0.73,1.21,0.60,-0.91,-4.14,
14:35:45:486,-0.21,-0.69,1.19,0.60,-0.91,-4.14,
14:35:45:486,-0.21,-0.69,1.19,0.78,-0.90,-4.28,
14:35:45:487,-0.26,-0.66,1.16,0.78,-0.90,-4.28,
14:35:45:487,-0.26,-0.66,1.16,0.94,-0.87,-4.42,
14:35:45:487,-0.31,-0.64,1.14,0.94,-0.87,-4.42,
14:35:45:487,-0.36,-0.62,1.12,0.94,-0.87,-4.42,
14:35:45:488,-0.36,-0.62,1.12,1.07,-0.88,-4.54,
14:35:45:488,-0.41,-0.59,1.09,1.07,-0.88,-4.54,
14:35:45:488,-0.47,-0.57,1.07,1.07,-0.88,-4.54,
14:35:45:488,-0.47,-0.57,1.07,1.21,-0.89,-4.56,
14:35:45:489,-0.52,-0.56,1.05,1.21,-0.89,-4.56,
14:35:45:489,-0.57,-0.54,1.02,1.21,-0.89,-4.56,
14:35:45:489,-0.57,-0.54,1.02,1.33,-0.89,-4.50,
14:35:45:489,-0.63,-0.53,1.00,1.33,-0.89,-4.50,
14:35:45:490,-0.68,-0.53,0.98,1.33,-0.89,-4.50,
14:35:45:490,-0.68,-0.53,0.98,1.42,-0.97,-4.39,
14:35:45:490,-0.74,-0.52,0.95,1.42,-0.97,-4.39,
14:35:45:516,-0.79,-0.52,0.93,1.42,-0.97,-4.39,
14:35:45:517,-0.85,-0.51,0.91,1.42,-0.97,-4.39,
14:35:45:518,-0.85,-0.51,0.91,1.52,-1.10,-4.25,
14:35:45:518,-0.90,-0.51,0.89,1.52,-1.10,-4.25,
14:35:45:518,-0.90,-0.51,0.89,1.60,-1.39,-4.10,
14:35:45:519,-0.94,-0.50,0.86,1.60,-1.39,-4.10,
14:35:45:519,-0.99,-0.49,0.83,1.60,-1.39,-4.10,
14:35:45:519,-0.99,-0.49,0.83,1.59,-1.86,-3.96,
14:35:45:519,-1.02,-0.47,0.79,1.59,-1.86,-3.96,
14:35:45:519,-1.05,-0.43,0.77,1.59,-1.86,-3.96,
14:35:45:520,-1.05,-0.43,0.77,1.73,-2.19,-3.74,
14:35:45:520,-1.08,-0.40,0.74,1.73,-2.19,-3.74,
14:35:45:520,-1.10,-0.37,0.71,1.73,-2.19,-3.74,
14:35:45:520,-1.12,-0.35,0.68,1.73,-2.19,-3.74,
14:35:45:520,-1.12,-0.35,0.68,1.95,-2.21,-3.41,
14:35:45:520,-1.13,-0.32,0.65,1.95,-2.21,-3.41,
14:35:45:521,-1.13,-0.32,0.65,2.07,-2.11,-3.03,
14:35:45:521,-1.14,-0.30,0.62,2.07,-2.11,-3.03,
14:35:45:521,-1.14,-0.28,0.58,2.07,-2.11,-3.03,
14:35:45:521,-1.15,-0.26,0.55,2.07,-2.11,-3.03,
14:35:45:521,-1.15,-0.26,0.55,2.23,-2.03,-2.65,
14:35:45:521,-1.15,-0.25,0.52,2.23,-2.03,-2.65,
14:35:45:522,-1.15,-0.25,0.52,2.38,-2.00,-2.27,
14:35:45:522,-1.15,-0.23,0.48,2.38,-2.00,-2.27,
14:35:45:523,-1.13,-0.21,0.45,2.38,-2.00,-2.27,
14:35:45:526,-1.13,-0.21,0.45,2.47,-1.96,-1.91,
14:35:45:526,-1.13,-0.19,0.41,2.47,-1.96,-1.91,
14:35:45:528,-1.11,-0.16,0.37,2.47,-1.96,-1.91,
14:35:45:530,-1.09,-0.13,0.33,2.47,-1.96,-1.91,
14:35:45:530,-1.09,-0.13,0.33,2.54,-1.93,-1.56,
14:35:45:532,-1.07,-0.10,0.29,2.54,-1.93,-1.56,
14:35:45:535,-1.05,-0.07,0.26,2.54,-1.93,-1.56,
14:35:45:535,-1.05,-0.07,0.26,2.63,-1.90,-1.22,
14:35:45:538,-1.02,-0.04,0.22,2.63,-1.90,-1.22,
14:35:45:538,-1.02,-0.04,0.22,2.69,-1.84,-0.92,
14:35:45:539,-0.99,0.01,0.18,2.69,-1.84,-0.92,
14:35:45:541,-0.97,0.06,0.14,2.69,-1.84,-0.92,
14:35:45:541,-0.94,0.10,0.11,2.69,-1.84,-0.92,
14:35:45:542,-0.94,0.10,0.11,2.72,-1.77,-0.68,
14:35:45:543,-0.91,0.13,0.09,2.72,-1.77,-0.68,
14:35:45:547,-0.88,0.15,0.06,2.72,-1.77,-0.68,
14:35:45:548,-0.88,0.15,0.06,2.69,-1.65,-0.48,
14:35:45:549,-0.85,0.16,0.03,2.69,-1.65,-0.48,
14:35:45:553,-0.85,0.16,0.03,2.57,-1.58,-0.33,
14:35:45:554,-0.83,0.18,-0.01,2.57,-1.58,-0.33,
14:35:45:555,-0.80,0.18,-0.04,2.57,-1.58,-0.33,
14:35:45:556,-0.78,0.20,-0.07,2.57,-1.58,-0.33,
14:35:45:557,-0.78,0.20,-0.07,2.45,-1.68,-0.18,
14:35:45:557,-0.76,0.20,-0.11,2.45,-1.68,-0.18,
14:35:45:558,-0.76,0.20,-0.11,2.44,-1.58,-0.08,
14:35:45:559,-0.75,0.20,-0.13,2.44,-1.58,-0.08,
14:35:45:561,-0.73,0.19,-0.16,2.44,-1.58,-0.08,
14:35:45:562,-0.73,0.19,-0.16,2.39,-1.50,-0.14,
14:35:45:563,-0.72,0.18,-0.18,2.39,-1.50,-0.14,
14:35:45:566,-0.72,0.17,-0.21,2.39,-1.50,-0.14,
14:35:45:566,-0.72,0.17,-0.21,2.22,-1.46,-0.21,
14:35:45:567,-0.72,0.17,-0.23,2.22,-1.46,-0.21,
14:35:45:576,-0.71,0.16,-0.24,2.22,-1.46,-0.21,
14:35:45:577,-0.71,0.16,-0.26,2.22,-1.46,-0.21,
14:35:45:578,-0.71,0.16,-0.26,2.05,-1.42,-0.32,
14:35:45:578,-0.71,0.15,-0.27,2.05,-1.42,-0.32,
14:35:45:578,-0.71,0.15,-0.29,2.05,-1.42,-0.32,
14:35:45:579,-0.71,0.15,-0.29,1.86,-1.36,-0.40,
14:35:45:579,-0.71,0.15,-0.30,1.86,-1.36,-0.40,
14:35:45:580,-0.70,0.16,-0.31,1.86,-1.36,-0.40,
14:35:45:580,-0.70,0.16,-0.31,1.67,-1.26,-0.43,
14:35:45:580,-0.70,0.16,-0.32,1.67,-1.26,-0.43,
14:35:45:585,-0.69,0.13,-0.32,1.67,-1.26,-0.43,
14:35:45:586,-0.69,0.13,-0.32,1.50,-1.14,-0.39,
14:35:45:586,-0.68,0.09,-0.31,1.50,-1.14,-0.39,
14:35:45:602,-0.67,0.05,-0.30,1.50,-1.14,-0.39,
14:35:45:625,-0.67,0.05,-0.30,1.34,-0.99,-0.23,
14:35:45:625,-0.66,0.01,-0.28,1.34,-0.99,-0.23,
14:35:45:626,-0.66,0.01,-0.28,0.89,-0.72,0.19,
14:35:45:626,-0.65,-0.03,-0.26,0.89,-0.72,0.19,
14:35:45:626,-0.65,-0.06,-0.23,0.89,-0.72,0.19,
14:35:45:627,-0.65,-0.06,-0.23,0.08,-0.32,0.71,
14:35:45:627,-0.63,-0.10,-0.19,0.08,-0.32,0.71,
14:35:45:627,-0.62,-0.14,-0.14,0.08,-0.32,0.71,
14:35:45:627,-0.61,-0.17,-0.07,0.08,-0.32,0.71,
14:35:45:627,-0.61,-0.17,-0.07,-0.66,0.09,0.95,
14:35:45:628,-0.60,-0.21,0.00,-0.66,0.09,0.95,
14:35:45:628,-0.60,-0.21,0.00,-1.61,0.53,1.28,
14:35:45:628,-0.59,-0.23,0.09,-1.61,0.53,1.28,
14:35:45:630,-0.57,-0.24,0.18,-1.61,0.53,1.28,
14:35:45:630,-0.55,-0.24,0.27,-1.61,0.53,1.28,
14:35:45:630,-0.55,-0.24,0.27,-3.12,1.18,1.65,
14:35:45:630,-0.53,-0.23,0.35,-3.12,1.18,1.65,
14:35:45:631,-0.53,-0.23,0.35,-4.67,1.78,1.76,
14:35:45:631,-0.51,-0.19,0.43,-4.67,1.78,1.76,
14:35:45:631,-0.49,-0.15,0.50,-4.67,1.78,1.76,
14:35:45:631,-0.46,-0.09,0.55,-4.67,1.78,1.76,
14:35:45:632,-0.46,-0.09,0.55,-5.42,2.07,1.70,
14:35:45:632,-0.43,-0.04,0.59,-5.42,2.07,1.70,
14:35:45:632,-0.43,-0.04,0.59,-5.10,1.86,1.37,
14:35:45:633,-0.39,0.01,0.61,-5.10,1.86,1.37,
14:35:45:633,-0.36,0.06,0.60,-5.10,1.86,1.37,
14:35:45:633,-0.36,0.06,0.60,-3.91,1.27,0.97,
14:35:45:633,-0.34,0.10,0.59,-3.91,1.27,0.97,
14:35:45:633,-0.31,0.12,0.59,-3.91,1.27,0.97,
14:35:45:635,-0.29,0.14,0.58,-3.91,1.27,0.97,
14:35:45:636,-0.29,0.14,0.58,-2.20,0.51,0.53,
14:35:45:636,-0.27,0.15,0.57,-2.20,0.51,0.53,
14:35:45:636,-0.25,0.16,0.55,-2.20,0.51,0.53,
14:35:45:636,-0.25,0.16,0.55,-0.46,-0.25,0.03,
14:35:45:637,-0.24,0.20,0.53,-0.46,-0.25,0.03,
14:35:45:637,-0.24,0.20,0.53,0.63,-0.36,-0.28,
14:35:45:637,-0.22,0.21,0.51,0.63,-0.36,-0.28,
14:35:45:637,-0.21,0.18,0.51,0.63,-0.36,-0.28,
14:35:45:638,-0.19,0.15,0.51,0.63,-0.36,-0.28,
14:35:45:638,-0.19,0.15,0.51,1.05,-0.32,-0.37,
14:35:45:640,-0.18,0.13,0.50,1.05,-0.32,-0.37,
14:35:45:642,-0.18,0.12,0.48,1.05,-0.32,-0.37,
14:35:45:642,-0.18,0.12,0.48,0.80,-0.35,-0.33,
14:35:45:644,-0.17,0.09,0.47,0.80,-0.35,-0.33,
14:35:45:646,-0.17,0.09,0.47,0.89,0.07,0.01,
14:35:45:647,-0.16,0.03,0.47,0.89,0.07,0.01,
14:35:45:647,-0.15,-0.03,0.46,0.89,0.07,0.01,
14:35:45:652,-0.15,-0.03,0.46,0.83,0.03,0.06,
14:35:45:652,-0.15,-0.09,0.45,0.83,0.03,0.06,
14:35:45:653,-0.15,-0.12,0.42,0.83,0.03,0.06,
14:35:45:654,-0.15,-0.12,0.42,0.83,0.05,0.17,
14:35:45:654,-0.14,-0.17,0.40,0.83,0.05,0.17,
14:35:45:656,-0.13,-0.23,0.39,0.83,0.05,0.17,
14:35:45:659,-0.13,-0.23,0.39,1.20,0.07,0.28,
14:35:45:659,-0.11,-0.30,0.38,1.20,0.07,0.28,
14:35:45:659,-0.09,-0.36,0.36,1.20,0.07,0.28,
14:35:45:662,-0.09,-0.36,0.36,1.08,-0.30,0.31,
14:35:45:662,-0.08,-0.39,0.33,1.08,-0.30,0.31,
14:35:45:665,-0.06,-0.39,0.30,1.08,-0.30,0.31,
14:35:45:671,-0.06,-0.39,0.30,1.38,-0.03,0.64,
14:35:45:672,-0.03,-0.42,0.28,1.38,-0.03,0.64,
14:35:45:686,-0.00,-0.44,0.26,1.38,-0.03,0.64,
14:35:45:686,0.03,-0.47,0.24,1.38,-0.03,0.64,
14:35:45:687,0.03,-0.47,0.24,1.71,-0.05,0.69,
14:35:45:687,0.06,-0.50,0.21,1.71,-0.05,0.69,
14:35:45:687,0.10,-0.53,0.17,1.71,-0.05,0.69,
14:35:45:688,0.10,-0.53,0.17,1.51,-0.34,0.68,
14:35:45:688,0.14,-0.55,0.13,1.51,-0.34,0.68,
14:35:45:688,0.17,-0.57,0.09,1.51,-0.34,0.68,
14:35:45:688,0.17,-0.57,0.09,1.81,-0.06,0.96,
14:35:45:688,0.21,-0.58,0.04,1.81,-0.06,0.96,
14:35:45:689,0.21,-0.58,0.04,2.32,0.12,1.03,
14:35:45:689,0.23,-0.60,0.00,2.32,0.12,1.03,
14:35:45:689,0.26,-0.61,-0.04,2.32,0.12,1.03,
14:35:45:689,0.26,-0.61,-0.04,2.56,0.19,0.93,
14:35:45:690,0.29,-0.61,-0.07,2.56,0.19,0.93,
14:35:45:690,0.31,-0.62,-0.10,2.56,0.19,0.93,
14:35:45:690,0.33,-0.61,-0.13,2.56,0.19,0.93,
14:35:45:690,0.33,-0.61,-0.13,2.50,0.23,0.72,
14:35:45:696,0.34,-0.61,-0.15,2.50,0.23,0.72,
14:35:45:696,0.35,-0.61,-0.16,2.50,0.23,0.72,
14:35:45:697,0.35,-0.61,-0.16,2.20,0.27,0.47,
14:35:45:697,0.36,-0.60,-0.17,2.20,0.27,0.47,
14:35:45:698,0.36,-0.59,-0.18,2.20,0.27,0.47,
14:35:45:699,0.36,-0.59,-0.18,1.75,0.23,0.18,
14:35:45:704,0.37,-0.59,-0.18,1.75,0.23,0.18,
14:35:45:705,0.37,-0.59,-0.18,1.23,0.11,-0.09,
14:35:45:705,0.37,-0.58,-0.18,1.23,0.11,-0.09,
14:35:45:705,0.38,-0.57,-0.18,1.23,0.11,-0.09,
14:35:45:705,0.38,-0.57,-0.18,0.72,-0.07,-0.29,
14:35:45:706,0.38,-0.57,-0.18,0.72,-0.07,-0.29,
14:35:45:708,0.39,-0.56,-0.18,0.72,-0.07,-0.29,
14:35:45:710,0.39,-0.56,-0.18,0.31,-0.21,-0.39,
14:35:45:711,0.39,-0.55,-0.17,0.31,-0.21,-0.39,
14:35:45:711,0.40,-0.55,-0.17,0.31,-0.21,-0.39,
14:35:45:715,0.40,-0.55,-0.17,0.11,-0.31,-0.45,
14:35:45:715,0.40,-0.55,-0.16,0.11,-0.31,-0.45,
14:35:45:715,0.41,-0.55,-0.16,0.11,-0.31,-0.45,
14:35:45:723,0.41,-0.57,-0.17,0.11,-0.31,-0.45,
14:35:45:724,0.41,-0.57,-0.17,0.06,-0.46,-0.51,
14:35:45:751,0.41,-0.58,-0.17,0.06,-0.46,-0.51,
14:35:45:751,0.41,-0.58,-0.17,0.13,-0.59,-0.56,
14:35:45:752,0.41,-0.60,-0.17,0.13,-0.59,-0.56,
14:35:45:753,0.41,-0.61,-0.18,0.13,-0.59,-0.56,
14:35:45:753,0.41,-0.61,-0.18,0.31,-0.67,-0.60,
14:35:45:753,0.41,-0.63,-0.18,0.31,-0.67,-0.60,
14:35:45:754,0.41,-0.64,-0.19,0.31,-0.67,-0.60,
14:35:45:754,0.41,-0.64,-0.19,0.51,-0.76,-0.64,
14:35:45:755,0.41,-0.66,-0.20,0.51,-0.76,-0.64,
14:35:45:755,0.41,-0.67,-0.21,0.51,-0.76,-0.64,
14:35:45:755,0.41,-0.68,-0.22,0.51,-0.76,-0.64,
14:35:45:756,0.41,-0.68,-0.22,0.71,-0.82,-0.71,
14:35:45:756,0.40,-0.69,-0.24,0.71,-0.82,-0.71,
14:35:45:757,0.40,-0.69,-0.24,0.87,-0.75,-0.78,
14:35:45:757,0.40,-0.69,-0.24,0.87,-0.75,-0.78,
14:35:45:757,0.40,-0.68,-0.25,0.87,-0.75,-0.78,
14:35:45:758,0.39,-0.67,-0.26,0.87,-0.75,-0.78,
14:35:45:758,0.39,-0.67,-0.26,0.91,-0.60,-0.86,
14:35:45:758,0.39,-0.66,-0.26,0.91,-0.60,-0.86,
14:35:45:759,0.39,-0.66,-0.26,0.89,-0.41,-1.04,
14:35:45:759,0.38,-0.64,-0.26,0.89,-0.41,-1.04,
14:35:45:759,0.36,-0.63,-0.26,0.89,-0.41,-1.04,
14:35:45:760,0.36,-0.63,-0.26,0.77,-0.26,-1.32,
14:35:45:760,0.35,-0.61,-0.26,0.77,-0.26,-1.32,
14:35:45:760,0.33,-0.60,-0.25,0.77,-0.26,-1.32,
14:35:45:761,0.33,-0.60,-0.25,0.47,-0.13,-1.65,
14:35:45:761,0.31,-0.58,-0.24,0.47,-0.13,-1.65,
14:35:45:762,0.28,-0.57,-0.23,0.47,-0.13,-1.65,
14:35:45:762,0.28,-0.57,-0.23,-0.01,-0.03,-1.93,
14:35:45:762,0.26,-0.56,-0.21,-0.01,-0.03,-1.93,
14:35:45:764,0.24,-0.55,-0.20,-0.01,-0.03,-1.93,
14:35:45:765,0.24,-0.55,-0.20,-0.51,-0.05,-2.13,
14:35:45:765,0.21,-0.54,-0.18,-0.51,-0.05,-2.13,
14:35:45:766,0.19,-0.54,-0.16,-0.51,-0.05,-2.13,
14:35:45:766,0.16,-0.53,-0.15,-0.51,-0.05,-2.13,
14:35:45:767,0.16,-0.53,-0.15,-0.86,-0.19,-2.28,
14:35:45:767,0.14,-0.53,-0.14,-0.86,-0.19,-2.28,
14:35:45:773,0.14,-0.53,-0.14,-0.96,-0.39,-2.36,
14:35:45:774,0.12,-0.52,-0.13,-0.96,-0.39,-2.36,
14:35:45:774,0.11,-0.51,-0.12,-0.96,-0.39,-2.36,
14:35:45:775,0.11,-0.51,-0.12,-0.81,-0.57,-2.36,
14:35:45:775,0.09,-0.50,-0.12,-0.81,-0.57,-2.36,
14:35:45:775,0.08,-0.49,-0.11,-0.81,-0.57,-2.36,
14:35:45:778,0.08,-0.49,-0.11,-0.57,-0.69,-2.32,
14:35:45:780,0.07,-0.48,-0.11,-0.57,-0.69,-2.32,
14:35:45:780,0.07,-0.48,-0.10,-0.57,-0.69,-2.32,
14:35:45:784,0.07,-0.48,-0.10,-0.40,-0.79,-2.22,
14:35:45:785,0.06,-0.47,-0.10,-0.40,-0.79,-2.22,
14:35:45:785,0.06,-0.45,-0.10,-0.40,-0.79,-2.22,
14:35:45:786,0.05,-0.43,-0.10,-0.40,-0.79,-2.22,
14:35:45:786,0.05,-0.43,-0.10,-0.29,-0.73,-2.08,
14:35:45:787,0.06,-0.42,-0.10,-0.29,-0.73,-2.08,
14:35:45:790,0.06,-0.42,-0.10,-0.23,-0.50,-1.96,
14:35:45:790,0.06,-0.41,-0.10,-0.23,-0.50,-1.96,
14:35:45:792,0.07,-0.42,-0.10,-0.23,-0.50,-1.96,
14:35:45:794,0.07,-0.42,-0.10,-0.25,-0.31,-1.83,
14:35:45:794,0.07,-0.43,-0.11,-0.25,-0.31,-1.83,
14:35:45:796,0.07,-0.45,-0.12,-0.25,-0.31,-1.83,
14:35:45:802,0.07,-0.45,-0.12,-0.26,-0.21,-1.55,
14:35:45:803,0.08,-0.48,-0.13,-0.26,-0.21,-1.55,
14:35:45:803,0.08,-0.51,-0.14,-0.26,-0.21,-1.55,
14:35:45:804,0.08,-0.54,-0.15,-0.26,-0.21,-1.55,
14:35:45:804,0.08,-0.54,-0.15,-0.20,-0.22,-1.36,
14:35:45:804,0.08,-0.57,-0.16,-0.20,-0.22,-1.36,
14:35:45:813,0.08,-0.57,-0.16,-0.19,-0.36,-1.29,
14:35:45:814,0.08,-0.59,-0.17,-0.19,-0.36,-1.29,
14:35:45:814,0.09,-0.61,-0.17,-0.19,-0.36,-1.29,
14:35:45:814,0.09,-0.64,-0.17,-0.19,-0.36,-1.29,
14:35:45:814,0.09,-0.64,-0.17,-0.18,-0.39,-1.25,
14:35:45:814,0.10,-0.65,-0.18,-0.18,-0.39,-1.25,
14:35:45:815,0.09,-0.66,-0.19,-0.18,-0.39,-1.25,
14:35:45:815,0.09,-0.66,-0.19,-0.20,-0.16,-1.29,
14:35:45:815,0.10,-0.63,-0.18,-0.20,-0.16,-1.29,
14:35:45:820,0.10,-0.58,-0.17,-0.20,-0.16,-1.29,
14:35:45:821,0.10,-0.58,-0.17,-0.39,-0.30,-1.41,
14:35:45:821,0.10,-0.57,-0.15,-0.39,-0.30,-1.41,
14:35:45:822,0.10,-0.57,-0.15,-0.64,-0.08,-1.63,
14:35:45:823,0.10,-0.56,-0.13,-0.64,-0.08,-1.63,
14:35:45:823,0.11,-0.56,-0.11,-0.64,-0.08,-1.63,
14:35:45:827,0.11,-0.56,-0.11,-0.97,0.48,-1.96,
14:35:45:828,0.10,-0.57,-0.11,-0.97,0.48,-1.96,
14:35:45:828,0.08,-0.55,-0.12,-0.97,0.48,-1.96,
14:35:45:831,0.05,-0.53,-0.14,-0.97,0.48,-1.96,
14:35:45:831,0.05,-0.53,-0.14,-1.26,-0.58,-2.22,
14:35:45:831,0.03,-0.52,-0.15,-1.26,-0.58,-2.22,
14:35:45:834,0.03,-0.52,-0.15,-1.08,-1.45,-2.56,
14:35:45:835,0.01,-0.54,-0.15,-1.08,-1.45,-2.56,
14:35:45:836,-0.01,-0.55,-0.15,-1.08,-1.45,-2.56,
14:35:45:837,-0.03,-0.56,-0.15,-1.08,-1.45,-2.56,
14:35:45:838,-0.03,-0.56,-0.15,-0.46,-0.97,-3.09,
14:35:45:840,-0.05,-0.54,-0.16,-0.46,-0.97,-3.09,
14:35:45:842,-0.05,-0.54,-0.16,-0.34,-0.60,-3.07,
14:35:45:842,-0.06,-0.51,-0.16,-0.34,-0.60,-3.07,
14:35:45:844,-0.07,-0.49,-0.16,-0.34,-0.60,-3.07,
14:35:45:846,-0.07,-0.49,-0.16,-0.37,-0.44,-3.17,
14:35:45:846,-0.09,-0.46,-0.15,-0.37,-0.44,-3.17,
14:35:45:847,-0.10,-0.44,-0.13,-0.37,-0.44,-3.17,
14:35:45:851,-0.12,-0.40,-0.11,-0.37,-0.44,-3.17,
14:35:45:852,-0.12,-0.40,-0.11,-0.54,-0.17,-3.35,
14:35:45:853,-0.14,-0.36,-0.10,-0.54,-0.17,-3.35,
14:35:45:883,-0.14,-0.36,-0.10,-1.08,0.08,-3.34,
14:35:45:883,-0.15,-0.32,-0.07,-1.08,0.08,-3.34,
14:35:45:884,-0.17,-0.31,-0.03,-1.08,0.08,-3.34,
14:35:45:884,-0.17,-0.31,-0.03,-1.70,0.24,-3.53,
14:35:45:885,-0.20,-0.33,0.01,-1.70,0.24,-3.53,
14:35:45:887,-0.23,-0.32,0.03,-1.70,0.24,-3.53,
14:35:45:887,-0.26,-0.30,0.06,-1.70,0.24,-3.53,
14:35:45:888,-0.26,-0.30,0.06,-2.35,0.18,-3.65,
14:35:45:891,-0.29,-0.28,0.08,-2.35,0.18,-3.65,
14:35:45:891,-0.32,-0.27,0.10,-2.35,0.18,-3.65,
14:35:45:892,-0.32,-0.27,0.10,-2.78,-0.21,-3.72,
14:35:45:892,-0.34,-0.26,0.12,-2.78,-0.21,-3.72,
14:35:45:893,-0.35,-0.25,0.16,-2.78,-0.21,-3.72,
14:35:45:893,-0.35,-0.25,0.16,-2.61,-0.11,-4.06,
14:35:45:893,-0.38,-0.25,0.19,-2.61,-0.11,-4.06,
14:35:45:893,-0.38,-0.25,0.19,-2.57,0.09,-4.13,
14:35:45:894,-0.40,-0.24,0.21,-2.57,0.09,-4.13,
14:35:45:895,-0.44,-0.23,0.22,-2.57,0.09,-4.13,
14:35:45:895,-0.46,-0.23,0.23,-2.57,0.09,-4.13,
14:35:45:895,-0.46,-0.23,0.23,-2.66,0.14,-4.03,
14:35:45:896,-0.48,-0.24,0.24,-2.66,0.14,-4.03,
14:35:45:896,-0.51,-0.24,0.25,-2.66,0.14,-4.03,
14:35:45:897,-0.51,-0.24,0.25,-2.33,0.08,-4.23,
14:35:45:897,-0.54,-0.22,0.25,-2.33,0.08,-4.23,
14:35:45:897,-0.54,-0.22,0.25,-1.88,0.07,-4.41,
14:35:45:898,-0.57,-0.19,0.25,-1.88,0.07,-4.41,
14:35:45:898,-0.59,-0.19,0.27,-1.88,0.07,-4.41,
14:35:45:898,-0.59,-0.19,0.27,-1.59,0.10,-4.40,
14:35:45:899,-0.61,-0.20,0.30,-1.59,0.10,-4.40,
14:35:45:899,-0.63,-0.19,0.31,-1.59,0.10,-4.40,
14:35:45:899,-0.63,-0.19,0.31,-1.58,-0.03,-4.43,
14:35:45:900,-0.65,-0.18,0.32,-1.58,-0.03,-4.43,
14:35:45:900,-0.67,-0.13,0.35,-1.58,-0.03,-4.43,
14:35:45:900,-0.67,-0.13,0.35,-1.71,-0.13,-4.17,
14:35:45:900,-0.69,-0.07,0.39,-1.71,-0.13,-4.17,
14:35:45:901,-0.75,-0.07,0.42,-1.71,-0.13,-4.17,
14:35:45:906,-0.75,-0.06,0.46,-1.71,-0.13,-4.17,
14:35:45:916,-0.75,-0.06,0.46,-1.53,-0.13,-4.22,
14:35:45:920,-0.77,-0.06,0.50,-1.53,-0.13,-4.22,
14:35:45:920,-0.77,-0.06,0.50,-2.05,0.87,-4.22,
14:35:45:920,-0.79,-0.07,0.53,-2.05,0.87,-4.22,
14:35:45:921,-0.82,-0.06,0.55,-2.05,0.87,-4.22,
14:35:45:921,-0.82,-0.06,0.55,-2.41,0.23,-4.16,
14:35:45:921,-0.86,-0.04,0.55,-2.41,0.23,-4.16,
14:35:45:922,-0.90,-0.03,0.56,-2.41,0.23,-4.16,
14:35:45:922,-0.90,-0.03,0.56,-2.38,-1.32,-3.95,
14:35:45:922,-0.93,-0.01,0.56,-2.38,-1.32,-3.95,
14:35:45:923,-0.97,-0.03,0.58,-2.38,-1.32,-3.95,
14:35:45:923,-0.97,-0.03,0.58,-1.93,-1.93,-4.29,
14:35:45:923,-1.01,-0.06,0.61,-1.93,-1.93,-4.29,
14:35:45:924,-1.05,-0.07,0.63,-1.93,-1.93,-4.29,
14:35:45:924,-1.05,-0.07,0.63,-1.77,-1.93,-4.32,
14:35:45:924,-1.09,-0.08,0.65,-1.77,-1.93,-4.32,
14:35:45:925,-1.13,-0.11,0.68,-1.77,-1.93,-4.32,
14:35:45:926,-1.13,-0.11,0.68,-1.87,-1.73,-4.17,
14:35:45:926,-1.16,-0.13,0.71,-1.87,-1.73,-4.17,
14:35:45:928,-1.19,-0.09,0.74,-1.87,-1.73,-4.17,
14:35:45:929,-1.21,-0.01,0.78,-1.87,-1.73,-4.17,
14:35:45:930,-1.21,-0.01,0.78,-1.87,-1.35,-4.16,
14:35:45:932,-1.19,0.12,0.81,-1.87,-1.35,-4.16,
14:35:45:934,-1.15,0.26,0.84,-1.87,-1.35,-4.16,
14:35:45:936,-1.15,0.26,0.84,-1.98,-1.00,-3.96,
14:35:45:936,-1.10,0.36,0.86,-1.98,-1.00,-3.96,
14:35:45:937,-1.10,0.36,0.86,-2.11,-0.88,-3.23,
14:35:45:938,-1.06,0.40,0.89,-2.11,-0.88,-3.23,
14:35:45:940,-1.02,0.38,0.93,-2.11,-0.88,-3.23,
14:35:45:942,-1.02,0.38,0.93,-2.16,-0.85,-1.66,
14:35:45:942,-0.98,0.34,1.01,-2.16,-0.85,-1.66,
14:35:45:943,-0.90,0.31,1.14,-2.16,-0.85,-1.66,
14:35:45:946,-0.85,0.33,1.26,-2.16,-0.85,-1.66,
14:35:45:946,-0.85,0.33,1.26,-2.15,-0.70,-0.82,
14:35:45:948,-0.79,0.40,1.38,-2.15,-0.70,-0.82,
14:35:45:949,-0.79,0.40,1.38,-2.65,-0.29,-1.28,
14:35:45:950,-0.73,0.50,1.49,-2.65,-0.29,-1.28,
14:35:45:953,-0.68,0.60,1.59,-2.65,-0.29,-1.28,
14:35:45:954,-0.63,0.71,1.68,-2.65,-0.29,-1.28,
14:35:45:955,-0.63,0.71,1.68,-3.60,0.36,-1.28,
14:35:45:955,-0.57,0.81,1.75,-3.60,0.36,-1.28,
14:35:45:958,-0.50,0.91,1.82,-3.60,0.36,-1.28,
14:35:45:958,-0.50,0.91,1.82,-3.82,0.73,-1.81,
14:35:45:960,-0.44,0.99,1.87,-3.82,0.73,-1.81,
14:35:45:961,-0.44,0.99,1.87,-3.64,0.94,-2.06,
14:35:45:962,-0.37,1.08,1.92,-3.64,0.94,-2.06,
14:35:45:964,-0.31,1.16,1.95,-3.64,0.94,-2.06,
14:35:45:969,-0.26,1.22,1.97,-3.64,0.94,-2.06,
14:35:45:970,-0.26,1.22,1.97,-3.18,1.02,-1.99,
14:35:45:970,-0.21,1.28,1.99,-3.18,1.02,-1.99,
14:35:45:971,-0.21,1.28,1.99,-2.48,0.99,-1.88,
14:35:45:971,-0.17,1.32,1.99,-2.48,0.99,-1.88,
14:35:45:971,-0.13,1.34,1.98,-2.48,0.99,-1.88,
14:35:45:982,-0.13,1.34,1.98,-1.66,0.88,-1.99,
14:35:45:982,-0.09,1.36,1.97,-1.66,0.88,-1.99,
14:35:45:983,-0.05,1.35,1.96,-1.66,0.88,-1.99,
14:35:45:983,-0.05,1.35,1.96,-0.89,0.82,-2.12,
14:35:45:983,-0.02,1.34,1.94,-0.89,0.82,-2.12,
14:35:45:983,0.01,1.33,1.91,-0.89,0.82,-2.12,
14:35:45:984,0.01,1.33,1.91,-0.27,0.86,-2.15,
14:35:45:984,0.04,1.28,1.88,-0.27,0.86,-2.15,
14:35:45:984,0.06,1.24,1.84,-0.27,0.86,-2.15,
14:35:45:991,0.08,1.21,1.79,-0.27,0.86,-2.15,
14:35:46:009,0.08,1.21,1.79,0.24,0.94,-2.28,
14:35:46:009,0.10,1.16,1.75,0.24,0.94,-2.28,
14:35:46:010,0.11,1.10,1.70,0.24,0.94,-2.28,
14:35:46:010,0.11,1.10,1.70,0.66,0.86,-2.48,
14:35:46:010,0.12,1.05,1.64,0.66,0.86,-2.48,
14:35:46:010,0.13,0.99,1.58,0.66,0.86,-2.48,
14:35:46:012,0.13,0.99,1.58,1.02,0.70,-2.71,
14:35:46:012,0.13,0.94,1.53,1.02,0.70,-2.71,
14:35:46:013,0.14,0.90,1.46,1.02,0.70,-2.71,
14:35:46:013,0.14,0.90,1.46,1.14,0.43,-3.00,
14:35:46:013,0.15,0.85,1.39,1.14,0.43,-3.00,
14:35:46:013,0.16,0.79,1.32,1.14,0.43,-3.00,
14:35:46:014,0.16,0.79,1.32,1.17,0.03,-3.30,
14:35:46:014,0.15,0.72,1.22,1.17,0.03,-3.30,
14:35:46:014,0.15,0.72,1.22,1.12,-0.43,-3.53,
14:35:46:014,0.11,0.62,1.10,1.12,-0.43,-3.53,
14:35:46:015,0.04,0.48,0.96,1.12,-0.43,-3.53,
14:35:46:015,0.04,0.48,0.96,0.98,-0.95,-3.75,
14:35:46:015,-0.06,0.31,0.81,0.98,-0.95,-3.75,
14:35:46:015,-0.19,0.13,0.67,0.98,-0.95,-3.75,
14:35:46:015,-0.19,0.13,0.67,1.39,-1.70,-4.20,
14:35:46:016,-0.34,-0.07,0.54,1.39,-1.70,-4.20,
14:35:46:017,-0.50,-0.25,0.43,1.39,-1.70,-4.20,
14:35:46:018,-0.50,-0.25,0.43,1.83,-2.19,-5.08,
14:35:46:018,-0.64,-0.42,0.35,1.83,-2.19,-5.08,
14:35:46:020,-0.75,-0.55,0.29,1.83,-2.19,-5.08,
14:35:46:021,-0.85,-0.64,0.25,1.83,-2.19,-5.08,
14:35:46:022,-0.85,-0.64,0.25,1.41,-1.53,-6.12,
14:35:46:024,-0.91,-0.69,0.21,1.41,-1.53,-6.12,
14:35:46:025,-0.91,-0.69,0.21,0.47,-0.33,-6.80,
14:35:46:026,-0.94,-0.71,0.20,0.47,-0.33,-6.80,
14:35:46:029,-0.95,-0.71,0.20,0.47,-0.33,-6.80,
14:35:46:030,-0.95,-0.71,0.20,-0.41,0.52,-6.84,
14:35:46:030,-0.94,-0.68,0.22,-0.41,0.52,-6.84,
14:35:46:038,-0.94,-0.68,0.22,-1.03,0.83,-6.41,
14:35:46:038,-0.92,-0.63,0.24,-1.03,0.83,-6.41,
14:35:46:039,-0.89,-0.57,0.28,-1.03,0.83,-6.41,
14:35:46:039,-0.87,-0.51,0.33,-1.03,0.83,-6.41,
14:35:46:039,-0.87,-0.51,0.33,-1.53,0.91,-5.89,
14:35:46:040,-0.87,-0.44,0.39,-1.53,0.91,-5.89,
14:35:46:040,-0.87,-0.38,0.45,-1.53,0.91,-5.89,
14:35:46:042,-0.87,-0.38,0.45,-1.93,0.94,-5.60,
14:35:46:042,-0.89,-0.32,0.51,-1.93,0.94,-5.60,
14:35:46:046,-0.92,-0.27,0.55,-1.93,0.94,-5.60,
14:35:46:047,-0.92,-0.27,0.55,-2.13,0.98,-5.69,
14:35:46:048,-0.97,-0.21,0.59,-2.13,0.98,-5.69,
14:35:46:050,-1.03,-0.15,0.61,-2.13,0.98,-5.69,
14:35:46:051,-1.03,-0.15,0.61,-1.92,0.78,-5.98,
14:35:46:052,-1.10,-0.10,0.63,-1.92,0.78,-5.98,
14:35:46:053,-1.18,-0.04,0.63,-1.92,0.78,-5.98,
14:35:46:078,-1.28,0.02,0.62,-1.92,0.78,-5.98,
14:35:46:081,-1.28,0.02,0.62,-1.35,0.33,-6.36,
14:35:46:082,-1.37,0.08,0.61,-1.35,0.33,-6.36,
14:35:46:082,-1.37,0.08,0.61,-0.68,-0.13,-6.72,
14:35:46:083,-1.47,0.15,0.59,-0.68,-0.13,-6.72,
14:35:46:083,-1.57,0.23,0.58,-0.68,-0.13,-6.72,
14:35:46:083,-1.57,0.23,0.58,-0.16,-0.37,-6.92,
14:35:46:084,-1.66,0.32,0.56,-0.16,-0.37,-6.92,
14:35:46:084,-1.75,0.41,0.55,-0.16,-0.37,-6.92,
14:35:46:085,-1.75,0.41,0.55,0.16,-0.33,-6.89,
14:35:46:086,-1.83,0.51,0.55,0.16,-0.33,-6.89,
14:35:46:086,-1.90,0.64,0.55,0.16,-0.33,-6.89,
14:35:46:087,-1.96,0.78,0.55,0.16,-0.33,-6.89,
14:35:46:087,-1.96,0.78,0.55,0.20,-0.12,-6.58,
14:35:46:087,-2.00,0.94,0.56,0.20,-0.12,-6.58,
14:35:46:088,-2.00,0.94,0.56,-0.01,0.04,-6.01,
14:35:46:088,-2.03,1.10,0.57,-0.01,0.04,-6.01,
14:35:46:088,-2.05,1.25,0.59,-0.01,0.04,-6.01,
14:35:46:089,-2.05,1.25,0.59,-0.39,0.02,-5.27,
14:35:46:089,-2.06,1.39,0.63,-0.39,0.02,-5.27,
14:35:46:089,-2.07,1.51,0.67,-0.39,0.02,-5.27,
14:35:46:090,-2.07,1.51,0.67,-0.95,-0.06,-4.39,
14:35:46:090,-2.07,1.61,0.71,-0.95,-0.06,-4.39,
14:35:46:091,-2.07,1.68,0.77,-0.95,-0.06,-4.39,
14:35:46:091,-2.07,1.68,0.77,-1.65,-0.13,-3.46,
14:35:46:092,-2.07,1.73,0.82,-1.65,-0.13,-3.46,
14:35:46:092,-2.06,1.75,0.88,-1.65,-0.13,-3.46,
14:35:46:092,-2.06,1.75,0.88,-2.15,-0.38,-2.54,
14:35:46:092,-2.05,1.75,0.93,-2.15,-0.38,-2.54,
14:35:46:093,-2.04,1.73,0.99,-2.15,-0.38,-2.54,
14:35:46:095,-2.04,1.73,0.99,-2.32,-0.75,-1.70,
14:35:46:095,-2.02,1.69,1.03,-2.32,-0.75,-1.70,
14:35:46:096,-2.01,1.64,1.07,-2.32,-0.75,-1.70,
14:35:46:100,-2.01,1.64,1.07,-2.14,-1.19,-0.97,
14:35:46:101,-1.98,1.58,1.10,-2.14,-1.19,-0.97,
14:35:46:101,-1.95,1.51,1.13,-2.14,-1.19,-0.97,
14:35:46:102,-1.95,1.51,1.13,-1.74,-1.61,-0.33,
14:35:46:102,-1.91,1.42,1.15,-1.74,-1.61,-0.33,
14:35:46:104,-1.88,1.33,1.16,-1.74,-1.61,-0.33,
14:35:46:106,-1.88,1.33,1.16,-1.23,-1.88,0.18,
14:35:46:106,-1.83,1.23,1.16,-1.23,-1.88,0.18,
14:35:46:109,-1.78,1.12,1.16,-1.23,-1.88,0.18,
14:35:46:110,-1.78,1.12,1.16,-0.75,-1.90,0.65,
14:35:46:110,-1.72,1.01,1.15,-0.75,-1.90,0.65,
14:35:46:112,-1.65,0.90,1.14,-0.75,-1.90,0.65,
14:35:46:113,-1.59,0.79,1.13,-0.75,-1.90,0.65,
14:35:46:117,-1.59,0.79,1.13,-0.37,-1.70,1.20,
14:35:46:118,-1.51,0.68,1.11,-0.37,-1.70,1.20,
14:35:46:118,-1.44,0.58,1.09,-0.37,-1.70,1.20,
14:35:46:119,-1.44,0.58,1.09,-0.05,-1.39,1.65,
14:35:46:138,-1.37,0.49,1.07,-0.05,-1.39,1.65,
14:35:46:139,-1.37,0.49,1.07,0.12,-1.06,1.89,
14:35:46:139,-1.29,0.40,1.05,0.12,-1.06,1.89,
14:35:46:139,-1.22,0.32,1.02,0.12,-1.06,1.89,
14:35:46:139,-1.22,0.32,1.02,0.19,-0.83,1.96,
14:35:46:140,-1.14,0.24,1.00,0.19,-0.83,1.96,
14:35:46:140,-1.07,0.19,0.98,0.19,-0.83,1.96,
14:35:46:140,-1.00,0.14,0.96,0.19,-0.83,1.96,
14:35:46:140,-1.00,0.14,0.96,0.24,-0.78,1.84,
14:35:46:140,-0.93,0.10,0.94,0.24,-0.78,1.84,
14:35:46:141,-0.93,0.10,0.94,0.31,-0.86,1.60,
14:35:46:141,-0.86,0.08,0.92,0.31,-0.86,1.60,
14:35:46:141,-0.80,0.06,0.90,0.31,-0.86,1.60,
14:35:46:147,-0.73,0.06,0.88,0.31,-0.86,1.60,
14:35:46:148,-0.67,0.08,0.87,0.31,-0.86,1.60,
14:35:46:148,-0.61,0.09,0.86,0.31,-0.86,1.60,
14:35:46:148,-0.61,0.09,0.86,0.34,-1.02,1.27,
14:35:46:148,-0.61,0.09,0.86,0.47,-1.29,0.89,
14:35:46:148,-0.57,0.09,0.86,0.47,-1.29,0.89,
14:35:46:149,-0.52,0.07,0.87,0.47,-1.29,0.89,
14:35:46:149,-0.52,0.07,0.87,0.67,-1.55,0.53,
14:35:46:149,-0.49,0.03,0.89,0.67,-1.55,0.53,
14:35:46:150,-0.49,0.03,0.89,0.65,-1.52,0.24,
14:35:46:150,-0.46,-0.02,0.92,0.65,-1.52,0.24,
14:35:46:154,-0.43,-0.07,0.93,0.65,-1.52,0.24,
14:35:46:155,-0.43,-0.07,0.93,0.17,-0.92,0.07,
14:35:46:156,-0.40,-0.12,0.94,0.17,-0.92,0.07,
14:35:46:156,-0.37,-0.17,0.95,0.17,-0.92,0.07,
14:35:46:157,-0.37,-0.17,0.95,-0.31,-0.25,-0.04,
14:35:46:159,-0.34,-0.21,0.94,-0.31,-0.25,-0.04,
14:35:46:159,-0.31,-0.25,0.93,-0.31,-0.25,-0.04,
14:35:46:162,-0.29,-0.29,0.91,-0.31,-0.25,-0.04,
14:35:46:163,-0.29,-0.29,0.91,-0.35,-0.06,-0.19,
14:35:46:163,-0.27,-0.31,0.90,-0.35,-0.06,-0.19,
14:35:46:167,-0.27,-0.31,0.90,-0.15,-0.22,-0.42,
14:35:46:167,-0.26,-0.33,0.89,-0.15,-0.22,-0.42,
14:35:46:167,-0.24,-0.35,0.89,-0.15,-0.22,-0.42,
14:35:46:173,-0.23,-0.36,0.89,-0.15,-0.22,-0.42,
14:35:46:174,-0.23,-0.36,0.89,-0.02,-0.45,-0.62,
14:35:46:174,-0.22,-0.37,0.90,-0.02,-0.45,-0.62,
14:35:46:174,-0.21,-0.37,0.90,-0.02,-0.45,-0.62,
14:35:46:174,-0.21,-0.37,0.90,-0.12,-0.66,-0.77,
14:35:46:175,-0.20,-0.38,0.93,-0.12,-0.66,-0.77,
14:35:46:177,-0.20,-0.38,0.93,-0.35,-0.83,-0.92,
14:35:46:177,-0.19,-0.38,0.95,-0.35,-0.83,-0.92,
14:35:46:179,-0.18,-0.38,0.98,-0.35,-0.83,-0.92,
14:35:46:182,-0.18,-0.39,1.02,-0.35,-0.83,-0.92,
14:35:46:183,-0.18,-0.39,1.02,-0.49,-0.97,-1.09,
14:35:46:183,-0.18,-0.40,1.06,-0.49,-0.97,-1.09,
14:35:46:187,-0.18,-0.40,1.10,-0.49,-0.97,-1.09,
14:35:46:187,-0.18,-0.40,1.10,-0.63,-0.97,-1.35,
14:35:46:187,-0.17,-0.40,1.13,-0.63,-0.97,-1.35,
14:35:46:190,-0.16,-0.41,1.16,-0.63,-0.97,-1.35,
14:35:46:191,-0.16,-0.41,1.16,-0.89,-0.84,-1.55,
14:35:46:192,-0.16,-0.42,1.19,-0.89,-0.84,-1.55,
14:35:46:193,-0.15,-0.44,1.21,-0.89,-0.84,-1.55,
14:35:46:194,-0.15,-0.44,1.21,-1.10,-0.76,-1.60,
14:35:46:196,-0.14,-0.48,1.23,-1.10,-0.76,-1.60,
14:35:46:198,-0.14,-0.48,1.23,-1.08,-0.84,-1.55,
14:35:46:198,-0.14,-0.53,1.24,-1.08,-0.84,-1.55,
14:35:46:200,-0.14,-0.60,1.25,-1.08,-0.84,-1.55,
14:35:46:202,-0.14,-0.60,1.25,-0.83,-0.90,-1.54,
14:35:46:202,-0.14,-0.68,1.25,-0.83,-0.90,-1.54,
14:35:46:204,-0.14,-0.77,1.25,-0.83,-0.90,-1.54,
14:35:46:205,-0.14,-0.77,1.25,-0.59,-0.76,-1.53,
14:35:46:206,-0.15,-0.88,1.24,-0.59,-0.76,-1.53,
14:35:46:207,-0.16,-0.98,1.22,-0.59,-0.76,-1.53,
14:35:46:211,-0.16,-0.98,1.22,-0.46,-0.57,-1.44,
14:35:46:212,-0.17,-1.11,1.22,-0.46,-0.57,-1.44,
14:35:46:212,-0.19,-1.25,1.22,-0.46,-0.57,-1.44,
14:35:46:215,-0.20,-1.38,1.22,-0.46,-0.57,-1.44,
14:35:46:215,-0.20,-1.38,1.22,-0.42,-0.51,-1.36,
14:35:46:215,-0.22,-1.50,1.21,-0.42,-0.51,-1.36,
14:35:46:220,-0.22,-1.50,1.21,-0.76,-0.78,-1.40,
14:35:46:220,-0.24,-1.60,1.20,-0.76,-0.78,-1.40,
14:35:46:221,-0.25,-1.68,1.19,-0.76,-0.78,-1.40,
14:35:46:223,-0.25,-1.68,1.19,-1.11,-1.14,-1.51,
14:35:46:223,-0.27,-1.77,1.17,-1.11,-1.14,-1.51,
14:35:46:224,-0.28,-1.86,1.17,-1.11,-1.14,-1.51,
14:35:46:227,-0.28,-1.86,1.17,-0.87,-1.02,-1.63,
14:35:46:227,-0.29,-1.97,1.16,-0.87,-1.02,-1.63,
14:35:46:228,-0.29,-2.09,1.16,-0.87,-1.02,-1.63,
14:35:46:230,-0.29,-2.09,1.16,-0.64,-0.92,-1.71,
14:35:46:231,-0.29,-2.20,1.16,-0.64,-0.92,-1.71,
14:35:46:231,-0.28,-2.32,1.16,-0.64,-0.92,-1.71,
14:35:46:236,-0.28,-2.32,1.16,-0.66,-0.95,-1.46,
14:35:46:237,-0.26,-2.43,1.17,-0.66,-0.95,-1.46,
14:35:46:238,-0.24,-2.52,1.18,-0.66,-0.95,-1.46,
14:35:46:238,-0.24,-2.52,1.18,-0.80,-1.15,-0.98,
14:35:46:238,-0.22,-2.59,1.18,-0.80,-1.15,-0.98,
14:35:46:240,-0.19,-2.65,1.17,-0.80,-1.15,-0.98,
14:35:46:242,-0.15,-2.73,1.18,-0.80,-1.15,-0.98,
14:35:46:242,-0.15,-2.73,1.18,-0.56,-1.45,-0.49,
14:35:46:244,-0.11,-2.77,1.18,-0.56,-1.45,-0.49,
14:35:46:247,-0.06,-2.78,1.18,-0.56,-1.45,-0.49,
14:35:46:247,-0.06,-2.78,1.18,0.17,-1.74,-0.18,
14:35:46:248,-0.02,-2.76,1.17,0.17,-1.74,-0.18,
14:35:46:251,-0.02,-2.76,1.17,0.76,-2.29,0.01,
14:35:46:252,0.02,-2.74,1.16,0.76,-2.29,0.01,
14:35:46:253,0.05,-2.71,1.16,0.76,-2.29,0.01,
14:35:46:283,0.05,-2.71,1.16,1.47,-2.81,0.26,
14:35:46:284,0.06,-2.68,1.16,1.47,-2.81,0.26,
14:35:46:284,0.08,-2.66,1.16,1.47,-2.81,0.26,
14:35:46:284,0.08,-2.66,1.16,2.29,-2.72,0.53,
14:35:46:284,0.09,-2.63,1.16,2.29,-2.72,0.53,
14:35:46:285,0.10,-2.59,1.14,2.29,-2.72,0.53,
14:35:46:285,0.10,-2.59,1.14,2.77,-2.33,0.70,
14:35:46:285,0.11,-2.54,1.13,2.77,-2.33,0.70,
14:35:46:285,0.12,-2.49,1.10,2.77,-2.33,0.70,
14:35:46:286,0.12,-2.49,1.10,3.14,-2.10,1.02,
14:35:46:286,0.12,-2.41,1.06,3.14,-2.10,1.02,
14:35:46:286,0.13,-2.31,1.01,3.14,-2.10,1.02,
14:35:46:287,0.13,-2.31,1.01,3.53,-2.09,1.42,
14:35:46:287,0.14,-2.18,0.95,3.53,-2.09,1.42,
14:35:46:287,0.15,-2.02,0.89,3.53,-2.09,1.42,
14:35:46:287,0.15,-2.02,0.89,4.02,-2.22,1.60,
14:35:46:288,0.15,-1.85,0.82,4.02,-2.22,1.60,
14:35:46:289,0.15,-1.68,0.76,4.02,-2.22,1.60,
14:35:46:289,0.14,-1.49,0.70,4.02,-2.22,1.60,
14:35:46:290,0.14,-1.49,0.70,4.59,-2.44,1.49,
14:35:46:290,0.14,-1.31,0.65,4.59,-2.44,1.49,
14:35:46:292,0.14,-1.31,0.65,4.78,-2.40,1.21,
14:35:46:293,0.12,-1.13,0.60,4.78,-2.40,1.21,
14:35:46:294,0.11,-0.96,0.56,4.78,-2.40,1.21,
14:35:46:294,0.11,-0.96,0.56,4.52,-2.11,1.01,
14:35:46:295,0.09,-0.80,0.52,4.52,-2.11,1.01,
14:35:46:295,0.08,-0.64,0.50,4.52,-2.11,1.01,
14:35:46:295,0.08,-0.64,0.50,3.98,-1.72,0.96,
14:35:46:296,0.05,-0.50,0.48,3.98,-1.72,0.96,
14:35:46:296,0.02,-0.38,0.47,3.98,-1.72,0.96,
14:35:46:296,-0.01,-0.27,0.47,3.98,-1.72,0.96,
14:35:46:296,-0.01,-0.27,0.47,3.33,-1.40,0.90,
14:35:46:296,-0.05,-0.17,0.47,3.33,-1.40,0.90,
14:35:46:297,-0.05,-0.17,0.47,2.64,-1.17,0.77,
14:35:46:297,-0.09,-0.10,0.48,2.64,-1.17,0.77,
14:35:46:301,-0.13,-0.03,0.51,2.64,-1.17,0.77,
14:35:46:302,-0.13,-0.03,0.51,1.89,-1.02,0.59,
14:35:46:302,-0.17,0.02,0.53,1.89,-1.02,0.59,
14:35:46:303,-0.22,0.05,0.56,1.89,-1.02,0.59,
14:35:46:305,-0.27,0.07,0.59,1.89,-1.02,0.59,
14:35:46:306,-0.27,0.07,0.59,1.24,-1.01,0.36,
14:35:46:307,-0.32,0.08,0.63,1.24,-1.01,0.36,
14:35:46:309,-0.32,0.08,0.63,0.69,-1.12,0.12,
14:35:46:310,-0.37,0.07,0.67,0.69,-1.12,0.12,
14:35:46:311,-0.42,0.06,0.71,0.69,-1.12,0.12,
14:35:46:313,-0.42,0.06,0.71,0.20,-1.30,-0.09,
14:35:46:313,-0.48,0.03,0.75,0.20,-1.30,-0.09,
14:35:46:320,-0.53,0.00,0.78,0.20,-1.30,-0.09,
14:35:46:321,-0.53,0.00,0.78,-0.21,-1.48,-0.28,
14:35:46:321,-0.58,-0.03,0.81,-0.21,-1.48,-0.28,
14:35:46:322,-0.62,-0.07,0.82,-0.21,-1.48,-0.28,
14:35:46:323,-0.62,-0.07,0.82,-0.48,-1.71,-0.47,
14:35:46:323,-0.65,-0.13,0.82,-0.48,-1.71,-0.47,
14:35:46:324,-0.68,-0.21,0.83,-0.48,-1.71,-0.47,
14:35:46:325,-0.68,-0.21,0.83,-0.46,-2.04,-0.58,
14:35:46:327,-0.69,-0.32,0.83,-0.46,-2.04,-0.58,
14:35:46:327,-0.70,-0.45,0.82,-0.46,-2.04,-0.58,
14:35:46:330,-0.70,-0.45,0.82,-0.30,-2.29,-0.46,
14:35:46:330,-0.71,-0.59,0.82,-0.30,-2.29,-0.46,
14:35:46:339,-0.71,-0.74,0.81,-0.30,-2.29,-0.46,
14:35:46:340,-0.71,-0.74,0.81,-0.21,-2.28,-0.07,
14:35:46:340,-0.70,-0.90,0.81,-0.21,-2.28,-0.07,
14:35:46:340,-0.69,-1.06,0.80,-0.21,-2.28,-0.07,
14:35:46:340,-0.68,-1.22,0.80,-0.21,-2.28,-0.07,
14:35:46:340,-0.68,-1.22,0.80,-0.12,-2.00,0.45,
14:35:46:341,-0.66,-1.37,0.80,-0.12,-2.00,0.45,
14:35:46:342,-0.66,-1.37,0.80,0.03,-1.61,0.96,
14:35:46:342,-0.65,-1.51,0.79,0.03,-1.61,0.96,
14:35:46:343,-0.63,-1.63,0.78,0.03,-1.61,0.96,
14:35:46:345,-0.63,-1.63,0.78,0.24,-1.29,1.38,
14:35:46:346,-0.62,-1.75,0.76,0.24,-1.29,1.38,
14:35:46:348,-0.61,-1.84,0.75,0.24,-1.29,1.38,
14:35:46:349,-0.61,-1.84,0.75,0.54,-1.15,1.71,
14:35:46:350,-0.59,-1.93,0.73,0.54,-1.15,1.71,
14:35:46:351,-0.58,-1.98,0.69,0.54,-1.15,1.71,
14:35:46:353,-0.55,-2.02,0.65,0.54,-1.15,1.71,
14:35:46:354,-0.55,-2.02,0.65,0.92,-1.19,1.99,
14:35:46:356,-0.53,-2.02,0.59,0.92,-1.19,1.99,
14:35:46:358,-0.53,-2.02,0.59,1.41,-1.42,2.25,
14:35:46:358,-0.50,-2.01,0.54,1.41,-1.42,2.25,
14:35:46:360,-0.47,-1.98,0.48,1.41,-1.42,2.25,
14:35:46:361,-0.47,-1.98,0.48,2.26,-2.04,2.57,
14:35:46:361,-0.43,-1.94,0.42,2.26,-2.04,2.57,
14:35:46:363,-0.40,-1.90,0.36,2.26,-2.04,2.57,
14:35:46:372,-0.36,-1.84,0.31,2.26,-2.04,2.57,
14:35:46:373,-0.36,-1.84,0.31,3.05,-2.54,2.96,
14:35:46:373,-0.31,-1.79,0.25,3.05,-2.54,2.96,
14:35:46:373,-0.26,-1.73,0.21,3.05,-2.54,2.96,
14:35:46:374,-0.26,-1.73,0.21,3.34,-2.81,3.40,
14:35:46:374,-0.20,-1.68,0.17,3.34,-2.81,3.40,
14:35:46:375,-0.20,-1.68,0.17,3.37,-2.93,3.98,
14:35:46:375,-0.14,-1.62,0.14,3.37,-2.93,3.98,
14:35:46:386,-0.07,-1.55,0.12,3.37,-2.93,3.98,
14:35:46:386,-0.07,-1.55,0.12,3.25,-2.84,4.67,
14:35:46:387,0.00,-1.48,0.10,3.25,-2.84,4.67,
14:35:46:387,0.07,-1.41,0.10,3.25,-2.84,4.67,
14:35:46:388,0.07,-1.41,0.10,2.98,-2.59,5.39,
14:35:46:388,0.15,-1.33,0.10,2.98,-2.59,5.39,
14:35:46:388,0.23,-1.25,0.12,2.98,-2.59,5.39,
14:35:46:388,0.30,-1.17,0.14,2.98,-2.59,5.39,
14:35:46:407,0.30,-1.17,0.14,2.59,-2.26,6.04,
14:35:46:408,0.36,-1.09,0.18,2.59,-2.26,6.04,
14:35:46:408,0.42,-1.00,0.22,2.59,-2.26,6.04,
14:35:46:408,0.42,-1.00,0.22,2.00,-1.99,6.52,
14:35:46:409,0.47,-0.91,0.28,2.00,-1.99,6.52,
14:35:46:409,0.47,-0.91,0.28,1.35,-1.75,6.72,
14:35:46:410,0.51,-0.84,0.34,1.35,-1.75,6.72,
14:35:46:410,0.54,-0.78,0.41,1.35,-1.75,6.72,
14:35:46:410,0.54,-0.78,0.41,0.73,-1.51,6.57,
14:35:46:411,0.57,-0.74,0.48,0.73,-1.51,6.57,
14:35:46:412,0.59,-0.70,0.56,0.73,-1.51,6.57,
14:35:46:412,0.59,-0.70,0.56,0.11,-1.30,6.10,
14:35:46:413,0.60,-0.68,0.63,0.11,-1.30,6.10,
14:35:46:413,0.60,-0.67,0.70,0.11,-1.30,6.10,
14:35:46:413,0.60,-0.67,0.70,-0.34,-1.11,5.51,
14:35:46:414,0.60,-0.67,0.77,-0.34,-1.11,5.51,
14:35:46:414,0.60,-0.67,0.83,-0.34,-1.11,5.51,
14:35:46:414,0.60,-0.67,0.83,-0.62,-1.01,4.92,
14:35:46:415,0.59,-0.69,0.90,-0.62,-1.01,4.92,
14:35:46:415,0.57,-0.70,0.95,-0.62,-1.01,4.92,
14:35:46:415,0.57,-0.70,0.95,-0.86,-1.03,4.35,
14:35:46:415,0.55,-0.73,1.01,-0.86,-1.03,4.35,
14:35:46:416,0.53,-0.74,1.06,-0.86,-1.03,4.35,
14:35:46:418,0.53,-0.74,1.06,-0.98,-1.14,3.77,
14:35:46:419,0.50,-0.75,1.11,-0.98,-1.14,3.77,
14:35:46:420,0.47,-0.75,1.15,-0.98,-1.14,3.77,
14:35:46:423,0.47,-0.75,1.15,-1.07,-1.32,3.09,
14:35:46:423,0.44,-0.73,1.19,-1.07,-1.32,3.09,
14:35:46:423,0.41,-0.71,1.22,-1.07,-1.32,3.09,
14:35:46:425,0.38,-0.67,1.24,-1.07,-1.32,3.09,
14:35:46:426,0.38,-0.67,1.24,-1.04,-1.42,2.33,
14:35:46:427,0.35,-0.63,1.26,-1.04,-1.42,2.33,
14:35:46:430,0.33,-0.58,1.27,-1.04,-1.42,2.33,
14:35:46:431,0.33,-0.58,1.27,-0.87,-1.46,1.61,
14:35:46:433,0.30,-0.53,1.29,-0.87,-1.46,1.61,
14:35:46:434,0.30,-0.53,1.29,-0.62,-1.54,0.94,
14:35:46:434,0.27,-0.49,1.31,-0.62,-1.54,0.94,
14:35:46:436,0.23,-0.44,1.33,-0.62,-1.54,0.94,
14:35:46:437,0.23,-0.44,1.33,-0.34,-1.52,0.43,
14:35:46:438,0.19,-0.41,1.35,-0.34,-1.52,0.43,
14:35:46:439,0.15,-0.37,1.36,-0.34,-1.52,0.43,
14:35:46:441,0.15,-0.37,1.36,-0.20,-1.30,0.05,
14:35:46:441,0.11,-0.33,1.36,-0.20,-1.30,0.05,
14:35:46:444,0.06,-0.31,1.37,-0.20,-1.30,0.05,
14:35:46:447,0.06,-0.31,1.37,-0.01,-1.02,-0.30,
14:35:46:447,0.01,-0.29,1.36,-0.01,-1.02,-0.30,
14:35:46:448,-0.05,-0.29,1.35,-0.01,-1.02,-0.30,
14:35:46:451,-0.05,-0.29,1.35,0.43,-0.82,-0.61,
14:35:46:452,-0.11,-0.29,1.34,0.43,-0.82,-0.61,
14:35:46:453,-0.18,-0.30,1.32,0.43,-0.82,-0.61,
14:35:46:453,-0.18,-0.30,1.32,0.95,-0.65,-0.81,
14:35:46:454,-0.26,-0.32,1.29,0.95,-0.65,-0.81,
14:35:46:455,-0.33,-0.34,1.25,0.95,-0.65,-0.81,
14:35:46:457,-0.33,-0.34,1.25,1.48,-0.49,-0.90,
14:35:46:458,-0.40,-0.35,1.21,1.48,-0.49,-0.90,
14:35:46:460,-0.47,-0.36,1.17,1.48,-0.49,-0.90,
14:35:46:463,-0.53,-0.36,1.11,1.48,-0.49,-0.90,
14:35:46:463,-0.53,-0.36,1.11,2.07,-0.45,-0.80,
14:35:46:464,-0.59,-0.36,1.06,2.07,-0.45,-0.80,
14:35:46:468,-0.65,-0.35,1.01,2.07,-0.45,-0.80,
14:35:46:469,-0.65,-0.35,1.01,2.64,-0.47,-0.56,
14:35:46:469,-0.69,-0.32,0.94,2.64,-0.47,-0.56,
14:35:46:470,-0.69,-0.32,0.94,3.08,-0.49,-0.23,
14:35:46:471,-0.72,-0.29,0.87,3.08,-0.49,-0.23,
14:35:46:473,-0.75,-0.25,0.80,3.08,-0.49,-0.23,
14:35:46:474,-0.75,-0.25,0.80,3.37,-0.47,0.22,
14:35:46:474,-0.76,-0.21,0.74,3.37,-0.47,0.22,
14:35:46:475,-0.78,-0.17,0.68,3.37,-0.47,0.22,
14:35:46:477,-0.78,-0.17,0.68,3.71,-0.60,0.77,
14:35:46:478,-0.78,-0.12,0.62,3.71,-0.60,0.77,
14:35:46:479,-0.78,-0.08,0.58,3.71,-0.60,0.77,
14:35:46:482,-0.78,-0.08,0.58,3.82,-0.60,1.35,
14:35:46:483,-0.78,-0.03,0.54,3.82,-0.60,1.35,
14:35:46:491,-0.78,0.02,0.50,3.82,-0.60,1.35,
14:35:46:492,-0.78,0.02,0.50,3.72,-0.49,1.89,
14:35:46:493,-0.77,0.05,0.47,3.72,-0.49,1.89,
14:35:46:494,-0.77,0.09,0.45,3.72,-0.49,1.89,
14:35:46:494,-0.77,0.09,0.45,3.51,-0.37,2.37,
14:35:46:495,-0.77,0.12,0.44,3.51,-0.37,2.37,
14:35:46:495,-0.77,0.14,0.44,3.51,-0.37,2.37,
14:35:46:496,-0.77,0.14,0.44,3.25,-0.24,2.80,
14:35:46:496,-0.77,0.16,0.43,3.25,-0.24,2.80,
14:35:46:497,-0.78,0.17,0.44,3.25,-0.24,2.80,
14:35:46:498,-0.78,0.17,0.44,2.92,-0.05,3.17,
14:35:46:498,-0.79,0.17,0.45,2.92,-0.05,3.17,
14:35:46:519,-0.81,0.16,0.46,2.92,-0.05,3.17,
14:35:46:520,-0.81,0.16,0.46,2.61,0.15,3.43,
14:35:46:521,-0.83,0.15,0.47,2.61,0.15,3.43,
14:35:46:521,-0.86,0.12,0.48,2.61,0.15,3.43,
14:35:46:521,-0.89,0.09,0.50,2.61,0.15,3.43,
14:35:46:522,-0.89,0.09,0.50,2.45,0.32,3.61,
14:35:46:522,-0.93,0.06,0.50,2.45,0.32,3.61,
14:35:46:522,-0.96,0.04,0.50,2.45,0.32,3.61,
14:35:46:523,-0.96,0.04,0.50,2.43,0.46,3.69,
14:35:46:523,-0.99,0.03,0.48,2.43,0.46,3.69,
14:35:46:523,-0.99,0.03,0.48,2.53,0.55,3.77,
14:35:46:523,-1.01,0.04,0.45,2.53,0.55,3.77,
14:35:46:524,-1.02,0.05,0.41,2.53,0.55,3.77,
14:35:46:524,-1.03,0.06,0.36,2.53,0.55,3.77,
14:35:46:524,-1.03,0.06,0.36,2.83,0.49,3.87,
14:35:46:546,-1.03,0.07,0.31,2.83,0.49,3.87,
14:35:46:546,-1.03,0.07,0.31,3.47,0.21,4.05,
14:35:46:546,-1.03,0.09,0.26,3.47,0.21,4.05,
14:35:46:547,-1.04,0.09,0.21,3.47,0.21,4.05,
14:35:46:547,-1.04,0.08,0.17,3.47,0.21,4.05,
14:35:46:547,-1.04,0.08,0.17,4.00,0.10,4.25,
14:35:46:547,-1.05,0.07,0.13,4.00,0.10,4.25,
14:35:46:548,-1.06,0.04,0.09,4.00,0.10,4.25,
14:35:46:548,-1.06,0.04,0.09,4.19,0.34,4.46,
14:35:46:548,-1.07,0.01,0.04,4.19,0.34,4.46,
14:35:46:548,-1.08,-0.03,-0.00,4.19,0.34,4.46,
14:35:46:549,-1.08,-0.03,-0.00,4.19,0.70,4.68,
14:35:46:549,-1.09,-0.07,-0.05,4.19,0.70,4.68,
14:35:46:549,-1.09,-0.07,-0.05,4.21,0.92,4.89,
14:35:46:549,-1.11,-0.11,-0.10,4.21,0.92,4.89,
14:35:46:550,-1.12,-0.15,-0.16,4.21,0.92,4.89,
14:35:46:550,-1.12,-0.15,-0.16,4.30,0.92,5.11,
14:35:46:550,-1.14,-0.18,-0.21,4.30,0.92,5.11,
14:35:46:551,-1.15,-0.21,-0.27,4.30,0.92,5.11,
14:35:46:551,-1.15,-0.21,-0.27,4.40,0.76,5.26,
14:35:46:551,-1.17,-0.24,-0.33,4.40,0.76,5.26,
14:35:46:551,-1.19,-0.26,-0.38,4.40,0.76,5.26,
14:35:46:552,-1.19,-0.26,-0.38,4.48,0.59,5.37,
14:35:46:552,-1.20,-0.28,-0.43,4.48,0.59,5.37,
14:35:46:552,-1.21,-0.29,-0.48,4.48,0.59,5.37,
14:35:46:554,-1.22,-0.29,-0.52,4.48,0.59,5.37,
14:35:46:554,-1.22,-0.29,-0.52,4.56,0.44,5.53,
14:35:46:555,-1.22,-0.28,-0.57,4.56,0.44,5.53,
14:35:46:557,-1.23,-0.27,-0.61,4.56,0.44,5.53,
14:35:46:558,-1.23,-0.27,-0.61,4.64,0.32,5.77,
14:35:46:560,-1.23,-0.25,-0.65,4.64,0.32,5.77,
14:35:46:562,-1.23,-0.21,-0.69,4.64,0.32,5.77,
14:35:46:562,-1.23,-0.21,-0.69,4.67,0.22,6.08,
14:35:46:563,-1.23,-0.18,-0.72,4.67,0.22,6.08,
14:35:46:567,-1.23,-0.18,-0.72,4.67,0.13,6.39,
14:35:46:569,-1.22,-0.13,-0.74,4.67,0.13,6.39,
14:35:46:569,-1.21,-0.08,-0.77,4.67,0.13,6.39,
14:35:46:569,-1.21,-0.08,-0.77,4.63,0.03,6.67,
14:35:46:570,-1.20,-0.03,-0.80,4.63,0.03,6.67,
14:35:46:572,-1.19,0.03,-0.82,4.63,0.03,6.67,
14:35:46:573,-1.17,0.08,-0.84,4.63,0.03,6.67,
14:35:46:574,-1.17,0.08,-0.84,4.57,-0.11,6.98,
14:35:46:576,-1.15,0.15,-0.86,4.57,-0.11,6.98,
14:35:46:577,-1.15,0.15,-0.86,4.47,-0.27,7.29,
14:35:46:578,-1.14,0.21,-0.88,4.47,-0.27,7.29,
14:35:46:579,-1.12,0.28,-0.90,4.47,-0.27,7.29,
14:35:46:584,-1.12,0.28,-0.90,4.40,-0.42,7.52,
14:35:46:584,-1.09,0.36,-0.91,4.40,-0.42,7.52,
14:35:46:585,-1.06,0.44,-0.93,4.40,-0.42,7.52,
14:35:46:591,-1.06,0.44,-0.93,4.35,-0.54,7.70,
14:35:46:591,-1.03,0.52,-0.95,4.35,-0.54,7.70,
14:35:46:591,-0.99,0.59,-0.96,4.35,-0.54,7.70,
14:35:46:592,-0.96,0.67,-0.97,4.35,-0.54,7.70,
14:35:46:592,-0.96,0.67,-0.97,4.33,-0.60,7.87,
14:35:46:592,-0.91,0.75,-0.98,4.33,-0.60,7.87,
14:35:46:593,-0.91,0.75,-0.98,4.24,-0.61,8.04,
14:35:46:594,-0.88,0.82,-0.99,4.24,-0.61,8.04,
14:35:46:596,-0.84,0.88,-1.00,4.24,-0.61,8.04,
14:35:46:598,-0.80,0.94,-1.00,4.24,-0.61,8.04,
14:35:46:598,-0.80,0.94,-1.00,4.08,-0.54,8.15,
14:35:46:600,-0.76,0.98,-1.01,4.08,-0.54,8.15,
14:35:46:602,-0.73,1.02,-1.01,4.08,-0.54,8.15,
14:35:46:602,-0.73,1.02,-1.01,3.93,-0.47,8.12,
14:35:46:603,-0.70,1.06,-1.02,3.93,-0.47,8.12,
14:35:46:606,-0.70,1.06,-1.02,3.76,-0.38,8.01,
14:35:46:606,-0.66,1.09,-1.03,3.76,-0.38,8.01,
14:35:46:607,-0.62,1.13,-1.05,3.76,-0.38,8.01,
14:35:46:609,-0.62,1.13,-1.05,3.61,-0.31,7.85,
14:35:46:609,-0.58,1.16,-1.06,3.61,-0.31,7.85,
14:35:46:611,-0.54,1.19,-1.08,3.61,-0.31,7.85,
14:35:46:613,-0.50,1.22,-1.10,3.61,-0.31,7.85,
14:35:46:613,-0.50,1.22,-1.10,3.50,-0.28,7.62,
14:35:46:617,-0.46,1.24,-1.12,3.50,-0.28,7.62,
14:35:46:617,-0.46,1.24,-1.12,3.36,-0.21,7.35,
14:35:46:618,-0.42,1.26,-1.14,3.36,-0.21,7.35,
14:35:46:619,-0.39,1.28,-1.15,3.36,-0.21,7.35,
14:35:46:622,-0.35,1.29,-1.16,3.36,-0.21,7.35,
14:35:46:623,-0.35,1.29,-1.16,3.16,-0.09,7.03,
14:35:46:623,-0.32,1.28,-1.18,3.16,-0.09,7.03,
14:35:46:625,-0.29,1.28,-1.18,3.16,-0.09,7.03,
14:35:46:625,-0.29,1.28,-1.18,2.89,0.08,6.64,
14:35:46:627,-0.26,1.28,-1.19,2.89,0.08,6.64,
14:35:46:630,-0.23,1.26,-1.20,2.89,0.08,6.64,
14:35:46:631,-0.23,1.26,-1.20,2.58,0.21,6.20,
14:35:46:631,-0.21,1.24,-1.21,2.58,0.21,6.20,
14:35:46:634,-0.21,1.24,-1.21,2.30,0.30,5.74,
14:35:46:635,-0.19,1.23,-1.22,2.30,0.30,5.74,
14:35:46:636,-0.16,1.21,-1.23,2.30,0.30,5.74,
14:35:46:638,-0.16,1.21,-1.23,2.13,0.31,5.28,
14:35:46:639,-0.14,1.20,-1.24,2.13,0.31,5.28,
14:35:46:639,-0.13,1.17,-1.25,2.13,0.31,5.28,
14:35:46:641,-0.13,1.17,-1.25,2.08,0.29,4.80,
14:35:46:642,-0.11,1.15,-1.27,2.08,0.29,4.80,
14:35:46:643,-0.10,1.13,-1.28,2.08,0.29,4.80,
14:35:46:646,-0.10,1.13,-1.28,1.99,0.32,4.36,
14:35:46:646,-0.08,1.10,-1.29,1.99,0.32,4.36,
14:35:46:649,-0.07,1.07,-1.30,1.99,0.32,4.36,
14:35:46:650,-0.06,1.04,-1.31,1.99,0.32,4.36,
14:35:46:651,-0.06,1.04,-1.31,1.79,0.40,3.98,
14:35:46:651,-0.06,1.01,-1.31,1.79,0.40,3.98,
14:35:46:677,-0.06,1.01,-1.31,1.52,0.49,3.61,
14:35:46:678,-0.05,0.99,-1.32,1.52,0.49,3.61,
14:35:46:678,-0.05,0.96,-1.32,1.52,0.49,3.61,
14:35:46:678,-0.05,0.96,-1.32,1.22,0.58,3.23,
14:35:46:679,-0.05,0.93,-1.32,1.22,0.58,3.23,
14:35:46:679,-0.05,0.89,-1.32,1.22,0.58,3.23,
14:35:46:679,-0.05,0.85,-1.32,1.22,0.58,3.23,
14:35:46:680,-0.05,0.85,-1.32,0.89,0.64,2.86,
14:35:46:680,-0.05,0.81,-1.31,0.89,0.64,2.86,
14:35:46:680,-0.05,0.78,-1.30,0.89,0.64,2.86,
14:35:46:681,-0.05,0.78,-1.30,0.57,0.66,2.53,
14:35:46:681,-0.05,0.74,-1.29,0.57,0.66,2.53,
14:35:46:682,-0.05,0.74,-1.29,0.27,0.63,2.23,
14:35:46:682,-0.05,0.71,-1.28,0.27,0.63,2.23,
14:35:46:684,-0.05,0.68,-1.26,0.27,0.63,2.23,
14:35:46:684,-0.05,0.64,-1.25,0.27,0.63,2.23,
14:35:46:685,-0.05,0.64,-1.25,-0.05,0.58,1.98,
14:35:46:685,-0.05,0.61,-1.23,-0.05,0.58,1.98,
14:35:46:685,-0.05,0.61,-1.23,-0.40,0.53,1.79,
14:35:46:686,-0.05,0.57,-1.21,-0.40,0.53,1.79,
14:35:46:686,-0.05,0.53,-1.19,-0.40,0.53,1.79,
14:35:46:686,-0.05,0.53,-1.19,-0.72,0.51,1.65,
14:35:46:687,-0.05,0.49,-1.17,-0.72,0.51,1.65,
14:35:46:687,-0.04,0.45,-1.15,-0.72,0.51,1.65,
14:35:46:687,-0.04,0.45,-1.15,-0.92,0.48,1.61,
14:35:46:687,-0.03,0.41,-1.14,-0.92,0.48,1.61,
14:35:46:688,-0.02,0.37,-1.13,-0.92,0.48,1.61,
14:35:46:690,-0.01,0.33,-1.12,-0.92,0.48,1.61,
14:35:46:691,-0.01,0.33,-1.12,-0.94,0.43,1.63,
14:35:46:692,-0.00,0.30,-1.11,-0.94,0.43,1.63,
14:35:46:693,-0.00,0.30,-1.11,-0.85,0.45,1.69,
14:35:46:694,0.01,0.28,-1.11,-0.85,0.45,1.69,
14:35:46:695,0.02,0.26,-1.11,-0.85,0.45,1.69,
14:35:46:698,0.02,0.26,-1.11,-0.62,0.54,1.72,
14:35:46:699,0.03,0.24,-1.11,-0.62,0.54,1.72,
14:35:46:699,0.04,0.23,-1.12,-0.62,0.54,1.72,
14:35:46:705,0.04,0.23,-1.12,-0.26,0.65,1.68,
14:35:46:706,0.06,0.22,-1.13,-0.26,0.65,1.68,
14:35:46:706,0.06,0.22,-1.14,-0.26,0.65,1.68,
14:35:46:707,0.07,0.22,-1.15,-0.26,0.65,1.68,
14:35:46:707,0.07,0.22,-1.15,0.15,0.69,1.52,
14:35:46:707,0.07,0.22,-1.16,0.15,0.69,1.52,
14:35:46:720,0.07,0.22,-1.16,0.40,0.68,1.33,
14:35:46:721,0.07,0.23,-1.17,0.40,0.68,1.33,
14:35:46:721,0.07,0.24,-1.18,0.40,0.68,1.33,
14:35:46:722,0.07,0.26,-1.18,0.40,0.68,1.33,
14:35:46:722,0.07,0.26,-1.18,0.48,0.61,1.13,
14:35:46:722,0.06,0.28,-1.18,0.48,0.61,1.13,
14:35:46:723,0.06,0.28,-1.18,0.45,0.49,0.90,
14:35:46:723,0.05,0.30,-1.18,0.45,0.49,0.90,
14:35:46:723,0.04,0.33,-1.18,0.45,0.49,0.90,
14:35:46:723,0.03,0.37,-1.18,0.45,0.49,0.90,
14:35:46:724,0.03,0.37,-1.18,0.32,0.37,0.68,
14:35:46:724,0.03,0.41,-1.17,0.32,0.37,0.68,
14:35:46:728,0.03,0.41,-1.17,0.14,0.24,0.53,
14:35:46:729,0.02,0.46,-1.16,0.14,0.24,0.53,
14:35:46:729,0.00,0.51,-1.14,0.14,0.24,0.53,
14:35:46:729,0.00,0.51,-1.14,-0.03,0.13,0.47,
14:35:46:730,-0.01,0.57,-1.12,-0.03,0.13,0.47,
14:35:46:737,-0.01,0.64,-1.10,-0.03,0.13,0.47,
14:35:46:737,-0.01,0.64,-1.10,-0.20,0.03,0.45,
14:35:46:738,-0.02,0.71,-1.08,-0.20,0.03,0.45,
14:35:46:738,-0.03,0.78,-1.05,-0.20,0.03,0.45,
14:35:46:738,-0.03,0.78,-1.05,-0.44,-0.01,0.39,
14:35:46:738,-0.04,0.84,-1.02,-0.44,-0.01,0.39,
14:35:46:740,-0.05,0.91,-0.99,-0.44,-0.01,0.39,
14:35:46:742,-0.05,0.91,-0.99,-0.70,-0.01,0.31,
14:35:46:742,-0.06,0.97,-0.97,-0.70,-0.01,0.31,
14:35:46:743,-0.07,1.02,-0.94,-0.70,-0.01,0.31,
14:35:46:745,-0.07,1.02,-0.94,-0.89,-0.02,0.26,
14:35:46:745,-0.08,1.07,-0.92,-0.89,-0.02,0.26,
14:35:46:748,-0.09,1.10,-0.89,-0.89,-0.02,0.26,
14:35:46:758,-0.10,1.13,-0.87,-0.89,-0.02,0.26,
14:35:46:759,-0.10,1.13,-0.87,-0.97,-0.06,0.21,
14:35:46:759,-0.11,1.15,-0.85,-0.97,-0.06,0.21,
14:35:46:759,-0.11,1.16,-0.83,-0.97,-0.06,0.21,
14:35:46:760,-0.11,1.16,-0.83,-0.96,-0.10,0.23,
14:35:46:760,-0.11,1.16,-0.82,-0.96,-0.10,0.23,
14:35:46:760,-0.11,1.16,-0.81,-0.96,-0.10,0.23,
14:35:46:760,-0.11,1.16,-0.81,-0.91,-0.17,0.36,
14:35:46:761,-0.10,1.16,-0.80,-0.91,-0.17,0.36,
14:35:46:761,-0.10,1.16,-0.80,-0.81,-0.20,0.58,
14:35:46:762,-0.09,1.16,-0.79,-0.81,-0.20,0.58,
14:35:46:764,-0.07,1.15,-0.78,-0.81,-0.20,0.58,
14:35:46:773,-0.07,1.15,-0.78,-0.66,-0.23,0.81,
14:35:46:774,-0.05,1.13,-0.78,-0.66,-0.23,0.81,
14:35:46:775,-0.03,1.11,-0.77,-0.66,-0.23,0.81,
14:35:46:775,-0.01,1.09,-0.77,-0.66,-0.23,0.81,
14:35:46:775,-0.01,1.09,-0.77,-0.55,-0.26,1.02,
14:35:46:776,0.01,1.07,-0.76,-0.55,-0.26,1.02,
14:35:46:776,0.04,1.04,-0.75,-0.55,-0.26,1.02,
14:35:46:776,0.04,1.04,-0.75,-0.52,-0.27,1.25,
14:35:46:777,0.06,1.01,-0.75,-0.52,-0.27,1.25,
14:35:46:779,0.06,1.01,-0.75,-0.53,-0.30,1.43,
14:35:46:779,0.09,0.98,-0.74,-0.53,-0.30,1.43,
14:35:46:780,0.12,0.94,-0.73,-0.53,-0.30,1.43,
14:35:46:790,0.12,0.94,-0.73,-0.56,-0.34,1.52,
14:35:46:791,0.14,0.91,-0.72,-0.56,-0.34,1.52,
14:35:46:792,0.17,0.88,-0.72,-0.56,-0.34,1.52,
14:35:46:792,0.17,0.88,-0.72,-0.58,-0.40,1.56,
14:35:46:837,0.19,0.83,-0.71,-0.58,-0.40,1.56,
14:35:46:839,0.22,0.80,-0.71,-0.58,-0.40,1.56,
14:35:46:839,0.25,0.77,-0.69,-0.58,-0.40,1.56,
14:35:46:840,0.25,0.77,-0.69,-0.63,-0.46,1.59,
14:35:46:840,0.28,0.73,-0.68,-0.63,-0.46,1.59,
14:35:46:840,0.30,0.70,-0.67,-0.63,-0.46,1.59,
14:35:46:841,0.30,0.70,-0.67,-0.73,-0.53,1.59,
14:35:46:841,0.33,0.67,-0.66,-0.73,-0.53,1.59,
14:35:46:841,0.36,0.64,-0.64,-0.73,-0.53,1.59,
14:35:46:842,0.36,0.64,-0.64,-0.86,-0.58,1.60,
14:35:46:842,0.39,0.62,-0.62,-0.86,-0.58,1.60,
14:35:46:842,0.41,0.60,-0.60,-0.86,-0.58,1.60,
14:35:46:842,0.41,0.60,-0.60,-1.01,-0.59,1.58,
14:35:46:843,0.44,0.58,-0.57,-1.01,-0.59,1.58,
14:35:46:843,0.46,0.57,-0.55,-1.01,-0.59,1.58,
14:35:46:843,0.46,0.57,-0.55,-1.19,-0.53,1.50,
14:35:46:844,0.48,0.57,-0.53,-1.19,-0.53,1.50,
14:35:46:844,0.48,0.57,-0.53,-1.34,-0.47,1.38,
14:35:46:844,0.50,0.57,-0.51,-1.34,-0.47,1.38,
14:35:46:845,0.52,0.57,-0.49,-1.34,-0.47,1.38,
14:35:46:845,0.54,0.57,-0.48,-1.34,-0.47,1.38,
14:35:46:845,0.54,0.57,-0.48,-1.31,-0.46,1.19,
14:35:46:845,0.55,0.57,-0.47,-1.31,-0.46,1.19,
14:35:46:846,0.56,0.57,-0.46,-1.31,-0.46,1.19,
14:35:46:846,0.56,0.57,-0.46,-1.13,-0.49,0.94,
14:35:46:846,0.56,0.57,-0.45,-1.13,-0.49,0.94,
14:35:46:846,0.56,0.57,-0.45,-0.92,-0.50,0.66,
14:35:46:847,0.57,0.58,-0.45,-0.92,-0.50,0.66,
14:35:46:847,0.56,0.58,-0.44,-0.92,-0.50,0.66,
14:35:46:847,0.56,0.58,-0.44,-0.73,-0.48,0.37,
14:35:46:848,0.56,0.59,-0.44,-0.73,-0.48,0.37,
14:35:46:848,0.55,0.59,-0.45,-0.73,-0.48,0.37,
14:35:46:848,0.55,0.59,-0.45,-0.52,-0.40,0.08,
14:35:46:848,0.54,0.60,-0.45,-0.52,-0.40,0.08,
14:35:46:849,0.53,0.61,-0.46,-0.52,-0.40,0.08,
14:35:46:849,0.51,0.62,-0.46,-0.52,-0.40,0.08,
14:35:46:849,0.51,0.62,-0.46,-0.26,-0.30,-0.22,
14:35:46:849,0.49,0.64,-0.47,-0.26,-0.30,-0.22,
14:35:46:850,0.49,0.64,-0.47,-0.01,-0.22,-0.50,
14:35:46:850,0.47,0.66,-0.48,-0.01,-0.22,-0.50,
14:35:46:850,0.45,0.67,-0.49,-0.01,-0.22,-0.50,
14:35:46:851,0.45,0.67,-0.49,0.17,-0.16,-0.75,
14:35:46:851,0.42,0.69,-0.49,0.17,-0.16,-0.75,
14:35:46:851,0.39,0.71,-0.50,0.17,-0.16,-0.75,
14:35:46:851,0.36,0.73,-0.51,0.17,-0.16,-0.75,
14:35:46:852,0.36,0.73,-0.51,0.27,-0.13,-0.95,
14:35:46:852,0.36,0.73,-0.51,0.30,-0.11,-1.06,
14:35:46:852,0.34,0.75,-0.51,0.30,-0.11,-1.06,
14:35:46:852,0.31,0.78,-0.52,0.30,-0.11,-1.06,
14:35:46:853,0.28,0.80,-0.52,0.30,-0.11,-1.06,
14:35:46:859,0.28,0.80,-0.52,0.30,-0.08,-1.05,
14:35:46:859,0.26,0.83,-0.53,0.30,-0.08,-1.05,
14:35:46:860,0.23,0.86,-0.53,0.30,-0.08,-1.05,
14:35:46:860,0.23,0.86,-0.53,0.32,-0.07,-0.98,
14:35:46:860,0.21,0.89,-0.53,0.32,-0.07,-0.98,
14:35:46:860,0.20,0.92,-0.53,0.32,-0.07,-0.98,
14:35:46:862,0.20,0.92,-0.53,0.38,-0.10,-0.81,
14:35:46:862,0.19,0.95,-0.54,0.38,-0.10,-0.81,
14:35:46:863,0.18,0.98,-0.54,0.38,-0.10,-0.81,
14:35:46:865,0.18,0.98,-0.54,0.38,-0.14,-0.57,
14:35:46:866,0.17,1.00,-0.53,0.38,-0.14,-0.57,
14:35:46:867,0.16,1.03,-0.53,0.38,-0.14,-0.57,
14:35:46:869,0.16,1.05,-0.53,0.38,-0.14,-0.57,
14:35:46:870,0.16,1.05,-0.53,0.37,-0.20,-0.31,
14:35:46:871,0.16,1.07,-0.53,0.37,-0.20,-0.31,
14:35:46:874,0.16,1.08,-0.53,0.37,-0.20,-0.31,
14:35:46:874,0.16,1.08,-0.53,0.34,-0.24,-0.04,
14:35:46:876,0.16,1.08,-0.53,0.34,-0.24,-0.04,
14:35:46:877,0.16,1.08,-0.53,0.30,-0.26,0.23,
14:35:46:878,0.17,1.09,-0.53,0.30,-0.26,0.23,
14:35:46:879,0.17,1.09,-0.53,0.30,-0.26,0.23,
14:35:46:883,0.17,1.09,-0.53,0.22,-0.28,0.47,
14:35:46:883,0.19,1.09,-0.53,0.22,-0.28,0.47,
14:35:46:884,0.19,1.09,-0.53,0.22,-0.28,0.47,
14:35:46:891,0.19,1.09,-0.53,0.19,-0.30,0.66,
14:35:46:892,0.21,1.08,-0.53,0.19,-0.30,0.66,
14:35:46:892,0.22,1.08,-0.53,0.19,-0.30,0.66,
14:35:46:892,0.22,1.08,-0.53,0.16,-0.34,0.80,
14:35:46:893,0.23,1.08,-0.53,0.16,-0.34,0.80,
14:35:46:893,0.25,1.06,-0.53,0.16,-0.34,0.80,
14:35:46:894,0.25,1.06,-0.53,0.11,-0.36,0.89,
14:35:46:894,0.26,1.05,-0.53,0.11,-0.36,0.89,
14:35:46:895,0.28,1.04,-0.53,0.11,-0.36,0.89,
14:35:46:898,0.29,1.02,-0.53,0.11,-0.36,0.89,
14:35:46:898,0.29,1.02,-0.53,0.01,-0.34,0.96,
14:35:46:900,0.30,1.01,-0.52,0.01,-0.34,0.96,
14:35:46:901,0.32,0.99,-0.53,0.01,-0.34,0.96,
14:35:46:902,0.32,0.99,-0.53,-0.10,-0.32,0.95,
14:35:46:903,0.33,0.97,-0.53,-0.10,-0.32,0.95,
14:35:46:906,0.33,0.97,-0.53,-0.15,-0.33,0.88,
14:35:46:907,0.34,0.95,-0.53,-0.15,-0.33,0.88,
14:35:46:908,0.35,0.93,-0.53,-0.15,-0.33,0.88,
14:35:46:910,0.35,0.93,-0.53,-0.13,-0.36,0.79,
14:35:46:911,0.37,0.90,-0.54,-0.13,-0.36,0.79,
14:35:46:911,0.38,0.88,-0.55,-0.13,-0.36,0.79,
14:35:46:913,0.39,0.86,-0.56,-0.13,-0.36,0.79,
14:35:46:913,0.39,0.86,-0.56,-0.07,-0.41,0.70,
14:35:46:916,0.40,0.82,-0.57,-0.07,-0.41,0.70,
14:35:46:923,0.40,0.82,-0.57,0.04,-0.45,0.64,
14:35:46:923,0.41,0.80,-0.58,0.04,-0.45,0.64,
14:35:46:938,0.42,0.77,-0.59,0.04,-0.45,0.64,
14:35:46:938,0.44,0.75,-0.60,0.04,-0.45,0.64,
14:35:46:938,0.44,0.75,-0.60,0.14,-0.47,0.60,
14:35:46:938,0.45,0.73,-0.61,0.14,-0.47,0.60,
14:35:46:939,0.46,0.71,-0.62,0.14,-0.47,0.60,
14:35:46:939,0.46,0.71,-0.62,0.20,-0.45,0.58,
14:35:46:939,0.47,0.69,-0.63,0.20,-0.45,0.58,
14:35:46:939,0.47,0.69,-0.63,0.20,-0.42,0.53,
14:35:46:939,0.48,0.68,-0.64,0.20,-0.42,0.53,
14:35:46:940,0.49,0.66,-0.64,0.20,-0.42,0.53,
14:35:46:940,0.49,0.66,-0.64,0.18,-0.38,0.46,
14:35:46:940,0.50,0.65,-0.65,0.18,-0.38,0.46,
14:35:46:940,0.50,0.64,-0.65,0.18,-0.38,0.46,
14:35:46:941,0.50,0.64,-0.65,0.13,-0.37,0.32,
14:35:46:941,0.50,0.63,-0.66,0.13,-0.37,0.32,
14:35:46:941,0.50,0.63,-0.66,0.13,-0.37,0.32,
14:35:46:943,0.50,0.63,-0.66,0.04,-0.39,0.13,
14:35:46:943,0.50,0.61,-0.66,0.04,-0.39,0.13,
14:35:46:943,0.50,0.60,-0.67,0.04,-0.39,0.13,
14:35:46:946,0.50,0.60,-0.67,-0.05,-0.42,-0.07,
14:35:46:947,0.49,0.59,-0.67,-0.05,-0.42,-0.07,
14:35:46:947,0.49,0.59,-0.67,-0.05,-0.42,-0.07,
14:35:46:950,0.49,0.59,-0.67,-0.12,-0.44,-0.24,
14:35:46:951,0.48,0.59,-0.67,-0.12,-0.44,-0.24,
14:35:46:951,0.47,0.59,-0.67,-0.12,-0.44,-0.24,
14:35:46:953,0.47,0.59,-0.67,-0.15,-0.46,-0.38,
14:35:46:953,0.46,0.59,-0.68,-0.15,-0.46,-0.38,
14:35:46:955,0.45,0.59,-0.68,-0.15,-0.46,-0.38,
14:35:46:957,0.45,0.59,-0.68,-0.15,-0.46,-0.38,
14:35:46:959,0.45,0.59,-0.68,-0.18,-0.46,-0.50,
14:35:46:960,0.44,0.60,-0.68,-0.18,-0.46,-0.50,
14:35:46:962,0.43,0.61,-0.68,-0.18,-0.46,-0.50,
14:35:46:962,0.43,0.61,-0.68,-0.17,-0.44,-0.57,
14:35:46:963,0.42,0.63,-0.69,-0.17,-0.44,-0.57,
14:35:46:966,0.42,0.63,-0.69,-0.12,-0.44,-0.61,
14:35:46:967,0.41,0.65,-0.69,-0.12,-0.44,-0.61,
14:35:46:968,0.40,0.66,-0.69,-0.12,-0.44,-0.61,
14:35:46:971,0.40,0.66,-0.69,-0.04,-0.45,-0.64,
14:35:46:972,0.39,0.68,-0.70,-0.04,-0.45,-0.64,
14:35:46:973,0.38,0.70,-0.70,-0.04,-0.45,-0.64,
14:35:46:975,0.36,0.72,-0.70,-0.04,-0.45,-0.64,
14:35:46:976,0.36,0.72,-0.70,0.02,-0.44,-0.69,
14:35:46:976,0.35,0.74,-0.71,0.02,-0.44,-0.69,
14:35:46:977,0.35,0.74,-0.71,0.01,-0.42,-0.78,
14:35:46:978,0.33,0.77,-0.71,0.01,-0.42,-0.78,
14:35:46:979,0.31,0.79,-0.72,0.01,-0.42,-0.78,
14:35:46:987,0.29,0.81,-0.72,0.01,-0.42,-0.78,
14:35:47:006,0.29,0.81,-0.72,-0.00,-0.39,-0.91,
14:35:47:006,0.28,0.83,-0.72,-0.00,-0.39,-0.91,
14:35:47:006,0.28,0.83,-0.72,0.03,-0.41,-1.07,
14:35:47:007,0.25,0.86,-0.73,0.03,-0.41,-1.07,
14:35:47:007,0.23,0.87,-0.74,0.03,-0.41,-1.07,
14:35:47:007,0.21,0.89,-0.74,0.03,-0.41,-1.07,
14:35:47:007,0.21,0.89,-0.74,0.06,-0.45,-1.22,
14:35:47:008,0.19,0.90,-0.74,0.06,-0.45,-1.22,
14:35:47:008,0.17,0.92,-0.75,0.06,-0.45,-1.22,
14:35:47:008,0.17,0.92,-0.75,0.03,-0.46,-1.32,
14:35:47:008,0.15,0.93,-0.75,0.03,-0.46,-1.32,
14:35:47:009,0.15,0.93,-0.75,-0.05,-0.44,-1.37,
14:35:47:009,0.13,0.94,-0.75,-0.05,-0.44,-1.37,
14:35:47:009,0.11,0.95,-0.75,-0.05,-0.44,-1.37,
14:35:47:009,0.11,0.95,-0.75,-0.11,-0.43,-1.38,
14:35:47:010,0.09,0.96,-0.75,-0.11,-0.43,-1.38,
14:35:47:010,0.08,0.96,-0.75,-0.11,-0.43,-1.38,
14:35:47:010,0.07,0.97,-0.76,-0.11,-0.43,-1.38,
14:35:47:010,0.07,0.97,-0.76,-0.16,-0.43,-1.35,
14:35:47:010,0.06,0.97,-0.76,-0.16,-0.43,-1.35,
14:35:47:011,0.06,0.97,-0.76,-0.20,-0.43,-1.29,
14:35:47:016,0.05,0.96,-0.76,-0.20,-0.43,-1.29,
14:35:47:016,0.04,0.96,-0.75,-0.20,-0.43,-1.29,
14:35:47:017,0.03,0.96,-0.76,-0.20,-0.43,-1.29,
14:35:47:017,0.03,0.96,-0.76,-0.26,-0.43,-1.17,
14:35:47:017,0.02,0.95,-0.76,-0.26,-0.43,-1.17,
14:35:47:018,0.02,0.95,-0.75,-0.26,-0.43,-1.17,
14:35:47:018,0.02,0.95,-0.75,-0.29,-0.43,-1.01,
14:35:47:024,0.02,0.94,-0.76,-0.29,-0.43,-1.01,
14:35:47:025,0.02,0.94,-0.76,-0.29,-0.43,-0.85,
14:35:47:026,0.02,0.93,-0.76,-0.29,-0.43,-0.85,
14:35:47:026,0.02,0.92,-0.75,-0.29,-0.43,-0.85,
14:35:47:026,0.02,0.92,-0.75,-0.26,-0.43,-0.70,
14:35:47:027,0.02,0.91,-0.75,-0.26,-0.43,-0.70,
14:35:47:028,0.02,0.90,-0.75,-0.26,-0.43,-0.70,
14:35:47:029,0.02,0.90,-0.75,-0.27,-0.43,-0.53,
14:35:47:029,0.03,0.89,-0.75,-0.27,-0.43,-0.53,
14:35:47:032,0.03,0.88,-0.75,-0.27,-0.43,-0.53,
14:35:47:034,0.03,0.88,-0.75,-0.29,-0.43,-0.34,
14:35:47:035,0.03,0.87,-0.74,-0.29,-0.43,-0.34,
14:35:47:035,0.04,0.86,-0.74,-0.29,-0.43,-0.34,
14:35:47:038,0.04,0.85,-0.74,-0.29,-0.43,-0.34,
14:35:47:038,0.04,0.85,-0.74,-0.30,-0.42,-0.18,
14:35:47:039,0.04,0.84,-0.73,-0.30,-0.42,-0.18,
14:35:47:041,0.04,0.83,-0.73,-0.30,-0.42,-0.18,
14:35:47:041,0.04,0.83,-0.73,-0.30,-0.42,-0.09,
14:35:47:044,0.04,0.83,-0.72,-0.30,-0.42,-0.09,
14:35:47:046,0.03,0.82,-0.72,-0.30,-0.42,-0.09,
14:35:47:046,0.03,0.82,-0.72,-0.33,-0.41,-0.08,
14:35:47:048,0.03,0.81,-0.71,-0.33,-0.41,-0.08,
14:35:47:051,0.03,0.81,-0.71,-0.42,-0.40,-0.13,
14:35:47:052,0.02,0.80,-0.71,-0.42,-0.40,-0.13,
14:35:47:052,0.02,0.79,-0.70,-0.42,-0.40,-0.13,
14:35:47:074,0.02,0.79,-0.70,-0.48,-0.40,-0.19,
14:35:47:075,0.01,0.78,-0.70,-0.48,-0.40,-0.19,
14:35:47:075,0.00,0.77,-0.69,-0.48,-0.40,-0.19,
14:35:47:076,0.00,0.77,-0.69,-0.50,-0.44,-0.22,
14:35:47:076,-0.00,0.76,-0.69,-0.50,-0.44,-0.22,
14:35:47:076,-0.01,0.75,-0.68,-0.50,-0.44,-0.22,
14:35:47:077,-0.01,0.75,-0.68,-0.53,-0.46,-0.19,
14:35:47:077,-0.02,0.73,-0.68,-0.53,-0.46,-0.19,
14:35:47:077,-0.02,0.72,-0.68,-0.53,-0.46,-0.19,
14:35:47:077,-0.02,0.72,-0.68,-0.52,-0.48,-0.08,
14:35:47:078,-0.02,0.72,-0.67,-0.52,-0.48,-0.08,
14:35:47:078,-0.02,0.70,-0.67,-0.52,-0.48,-0.08,
14:35:47:078,-0.02,0.70,-0.67,-0.43,-0.51,0.09,
14:35:47:078,-0.02,0.69,-0.67,-0.43,-0.51,0.09,
14:35:47:079,-0.01,0.68,-0.67,-0.43,-0.51,0.09,
14:35:47:079,-0.01,0.68,-0.67,-0.33,-0.53,0.30,
14:35:47:079,-0.01,0.67,-0.67,-0.33,-0.53,0.30,
14:35:47:080,0.00,0.67,-0.66,-0.33,-0.53,0.30,
14:35:47:080,0.01,0.66,-0.65,-0.33,-0.53,0.30,
14:35:47:080,0.01,0.66,-0.65,-0.27,-0.53,0.58,
14:35:47:080,0.02,0.65,-0.65,-0.27,-0.53,0.58,
14:35:47:083,0.04,0.64,-0.64,-0.27,-0.53,0.58,
14:35:47:083,0.04,0.64,-0.64,-0.29,-0.51,0.87,
14:35:47:084,0.05,0.64,-0.62,-0.29,-0.51,0.87,
14:35:47:086,0.06,0.63,-0.61,-0.29,-0.51,0.87,
14:35:47:088,0.06,0.63,-0.61,-0.35,-0.54,1.13,
14:35:47:088,0.08,0.63,-0.60,-0.35,-0.54,1.13,
14:35:47:090,0.08,0.63,-0.60,-0.39,-0.56,1.34,
14:35:47:091,0.10,0.63,-0.59,-0.39,-0.56,1.34,
14:35:47:091,0.11,0.62,-0.58,-0.39,-0.56,1.34,
14:35:47:093,0.13,0.61,-0.57,-0.39,-0.56,1.34,
14:35:47:093,0.13,0.61,-0.57,-0.40,-0.60,1.50,
14:35:47:096,0.15,0.61,-0.56,-0.40,-0.60,1.50,
14:35:47:103,0.17,0.60,-0.55,-0.40,-0.60,1.50,
14:35:47:104,0.17,0.60,-0.55,-0.38,-0.64,1.63,
14:35:47:104,0.19,0.60,-0.53,-0.38,-0.64,1.63,
14:35:47:104,0.21,0.59,-0.52,-0.38,-0.64,1.63,
14:35:47:104,0.21,0.59,-0.52,-0.33,-0.67,1.74,
14:35:47:104,0.23,0.58,-0.51,-0.33,-0.67,1.74,
14:35:47:105,0.25,0.57,-0.49,-0.33,-0.67,1.74,
14:35:47:106,0.25,0.57,-0.49,-0.29,-0.66,1.81,
14:35:47:107,0.27,0.56,-0.48,-0.29,-0.66,1.81,
14:35:47:109,0.27,0.56,-0.48,-0.30,-0.62,1.84,
14:35:47:109,0.29,0.55,-0.47,-0.30,-0.62,1.84,
14:35:47:111,0.31,0.54,-0.46,-0.30,-0.62,1.84,
14:35:47:115,0.32,0.53,-0.45,-0.30,-0.62,1.84,
14:35:47:116,0.32,0.53,-0.45,-0.31,-0.58,1.84,
14:35:47:116,0.34,0.51,-0.43,-0.31,-0.58,1.84,
14:35:47:117,0.34,0.51,-0.43,-0.24,-0.54,1.77,
14:35:47:118,0.36,0.50,-0.43,-0.24,-0.54,1.77,
14:35:47:119,0.37,0.49,-0.42,-0.24,-0.54,1.77,
14:35:47:121,0.37,0.49,-0.42,-0.15,-0.49,1.66,
14:35:47:121,0.38,0.48,-0.41,-0.15,-0.49,1.66,
14:35:47:123,0.39,0.47,-0.40,-0.15,-0.49,1.66,
14:35:47:126,0.39,0.47,-0.40,-0.06,-0.44,1.49,
14:35:47:126,0.39,0.46,-0.40,-0.06,-0.44,1.49,
14:35:47:128,0.40,0.44,-0.39,-0.06,-0.44,1.49,
14:35:47:130,0.40,0.43,-0.38,-0.06,-0.44,1.49,
14:35:47:130,0.40,0.43,-0.38,0.03,-0.37,1.27,
14:35:47:132,0.41,0.42,-0.38,0.03,-0.37,1.27,
14:35:47:133,0.41,0.42,-0.38,0.09,-0.32,1.03,
14:35:47:133,0.40,0.40,-0.37,0.09,-0.32,1.03,
14:35:47:135,0.40,0.39,-0.37,0.09,-0.32,1.03,
14:35:47:138,0.40,0.37,-0.37,0.09,-0.32,1.03,
14:35:47:139,0.40,0.37,-0.37,0.12,-0.27,0.80,
14:35:47:139,0.40,0.36,-0.36,0.12,-0.27,0.80,
14:35:47:142,0.39,0.35,-0.36,0.12,-0.27,0.80,
14:35:47:142,0.39,0.35,-0.36,0.17,-0.20,0.61,
14:35:47:144,0.39,0.33,-0.36,0.17,-0.20,0.61,
14:35:47:146,0.39,0.33,-0.36,0.21,-0.15,0.45,
14:35:47:147,0.38,0.32,-0.36,0.21,-0.15,0.45,
14:35:47:148,0.38,0.31,-0.36,0.21,-0.15,0.45,
14:35:47:152,0.37,0.30,-0.36,0.21,-0.15,0.45,
14:35:47:153,0.37,0.30,-0.36,0.28,-0.12,0.33,
14:35:47:154,0.37,0.29,-0.36,0.28,-0.12,0.33,
14:35:47:155,0.37,0.29,-0.36,0.36,-0.08,0.25,
14:35:47:156,0.36,0.28,-0.36,0.36,-0.08,0.25,
14:35:47:156,0.35,0.27,-0.35,0.36,-0.08,0.25,
14:35:47:157,0.35,0.27,-0.35,0.40,-0.04,0.20,
14:35:47:158,0.35,0.26,-0.35,0.40,-0.04,0.20,
14:35:47:160,0.35,0.25,-0.35,0.40,-0.04,0.20,
14:35:47:161,0.34,0.24,-0.35,0.40,-0.04,0.20,
14:35:47:162,0.34,0.24,-0.35,0.41,0.00,0.14,
14:35:47:163,0.33,0.22,-0.34,0.41,0.00,0.14,
14:35:47:167,0.32,0.21,-0.34,0.41,0.00,0.14,
14:35:47:168,0.32,0.21,-0.34,0.38,0.04,0.10,
14:35:47:169,0.31,0.19,-0.33,0.38,0.04,0.10,
14:35:47:170,0.31,0.19,-0.33,0.32,0.06,0.08,
14:35:47:171,0.31,0.18,-0.33,0.32,0.06,0.08,
14:35:47:171,0.30,0.16,-0.32,0.32,0.06,0.08,
14:35:47:175,0.30,0.16,-0.32,0.27,0.08,0.09,
14:35:47:175,0.30,0.14,-0.32,0.27,0.08,0.09,
14:35:47:176,0.29,0.13,-0.31,0.27,0.08,0.09,
14:35:47:178,0.29,0.13,-0.31,0.23,0.09,0.12,
14:35:47:179,0.29,0.11,-0.31,0.23,0.09,0.12,
14:35:47:181,0.29,0.09,-0.31,0.23,0.09,0.12,
14:35:47:182,0.29,0.09,-0.31,0.21,0.10,0.19,
14:35:47:182,0.29,0.07,-0.30,0.21,0.10,0.19,
14:35:47:190,0.29,0.05,-0.30,0.21,0.10,0.19,
14:35:47:191,0.29,0.05,-0.30,0.20,0.11,0.28,
14:35:47:224,0.29,0.04,-0.30,0.20,0.11,0.28,
14:35:47:224,0.29,0.03,-0.29,0.20,0.11,0.28,
14:35:47:225,0.29,0.03,-0.29,0.26,0.10,0.40,
14:35:47:225,0.29,0.02,-0.29,0.26,0.10,0.40,
14:35:47:226,0.30,0.01,-0.29,0.26,0.10,0.40,
14:35:47:226,0.30,-0.00,-0.29,0.26,0.10,0.40,
14:35:47:227,0.30,-0.00,-0.29,0.36,0.07,0.54,
14:35:47:227,0.30,-0.00,-0.29,0.36,0.07,0.54,
14:35:47:227,0.30,-0.00,-0.29,0.46,0.02,0.67,
14:35:47:227,0.31,-0.00,-0.30,0.46,0.02,0.67,
14:35:47:228,0.32,0.00,-0.30,0.46,0.02,0.67,
14:35:47:228,0.32,0.00,-0.30,0.58,-0.02,0.83,
14:35:47:228,0.33,0.01,-0.30,0.58,-0.02,0.83,
14:35:47:229,0.35,0.01,-0.30,0.58,-0.02,0.83,
14:35:47:229,0.36,0.02,-0.30,0.58,-0.02,0.83,
14:35:47:229,0.36,0.02,-0.30,0.75,-0.01,1.00,
14:35:47:229,0.38,0.03,-0.30,0.75,-0.01,1.00,
14:35:47:230,0.39,0.03,-0.30,0.75,-0.01,1.00,
14:35:47:230,0.39,0.03,-0.30,0.83,-0.00,1.13,
14:35:47:230,0.41,0.04,-0.30,0.83,-0.00,1.13,
14:35:47:231,0.42,0.05,-0.30,0.83,-0.00,1.13,
14:35:47:231,0.42,0.05,-0.30,0.82,0.03,1.24,
14:35:47:231,0.45,0.06,-0.30,0.82,0.03,1.24,
14:35:47:231,0.45,0.06,-0.30,0.75,0.04,1.33,
14:35:47:232,0.46,0.07,-0.30,0.75,0.04,1.33,
14:35:47:232,0.48,0.07,-0.29,0.75,0.04,1.33,
14:35:47:234,0.50,0.08,-0.29,0.75,0.04,1.33,
14:35:47:234,0.50,0.08,-0.29,0.70,0.03,1.35,
14:35:47:235,0.51,0.08,-0.29,0.70,0.03,1.35,
14:35:47:235,0.53,0.09,-0.28,0.70,0.03,1.35,
14:35:47:235,0.53,0.09,-0.28,0.67,0.02,1.32,
14:35:47:235,0.55,0.09,-0.28,0.67,0.02,1.32,
14:35:47:236,0.56,0.09,-0.28,0.67,0.02,1.32,
14:35:47:236,0.56,0.09,-0.28,0.63,-0.03,1.27,
14:35:47:236,0.57,0.10,-0.28,0.63,-0.03,1.27,
14:35:47:236,0.57,0.10,-0.28,0.60,-0.06,1.19,
14:35:47:236,0.58,0.11,-0.28,0.60,-0.06,1.19,
14:35:47:236,0.59,0.11,-0.27,0.60,-0.06,1.19,
14:35:47:240,0.59,0.11,-0.27,0.57,-0.10,1.08,
14:35:47:240,0.61,0.12,-0.27,0.57,-0.10,1.08,
14:35:47:241,0.61,0.13,-0.26,0.57,-0.10,1.08,
14:35:47:241,0.63,0.14,-0.26,0.57,-0.10,1.08,
14:35:47:242,0.63,0.14,-0.26,0.57,-0.09,0.95,
14:35:47:244,0.63,0.14,-0.26,0.57,-0.09,0.95,
14:35:47:246,0.63,0.14,-0.26,0.52,-0.05,0.82,
14:35:47:246,0.64,0.15,-0.25,0.52,-0.05,0.82,
14:35:47:248,0.65,0.16,-0.25,0.52,-0.05,0.82,
14:35:47:250,0.65,0.16,-0.25,0.44,-0.01,0.69,
14:35:47:251,0.66,0.16,-0.24,0.44,-0.01,0.69,
14:35:47:251,0.66,0.16,-0.24,0.44,-0.01,0.69,
14:35:47:253,0.66,0.16,-0.24,0.36,-0.01,0.56,
14:35:47:253,0.67,0.17,-0.23,0.36,-0.01,0.56,
14:35:47:255,0.67,0.17,-0.23,0.36,-0.01,0.56,
14:35:47:258,0.67,0.17,-0.23,0.31,-0.03,0.42,
14:35:47:258,0.68,0.17,-0.23,0.31,-0.03,0.42,
14:35:47:259,0.68,0.17,-0.23,0.31,-0.03,0.42,
14:35:47:263,0.68,0.17,-0.23,0.30,-0.05,0.29,
14:35:47:263,0.68,0.17,-0.22,0.30,-0.05,0.29,
14:35:47:263,0.69,0.16,-0.22,0.30,-0.05,0.29,
14:35:47:266,0.69,0.16,-0.22,0.30,-0.06,0.21,
14:35:47:267,0.69,0.16,-0.22,0.30,-0.06,0.21,
14:35:47:267,0.69,0.16,-0.22,0.30,-0.06,0.21,
14:35:47:270,0.69,0.16,-0.22,0.29,-0.07,0.12,
14:35:47:270,0.69,0.15,-0.22,0.29,-0.07,0.12,
14:35:47:272,0.70,0.15,-0.22,0.29,-0.07,0.12,
14:35:47:273,0.70,0.15,-0.22,0.26,-0.04,0.01,
14:35:47:274,0.70,0.14,-0.22,0.26,-0.04,0.01,
14:35:47:275,0.70,0.13,-0.22,0.26,-0.04,0.01,
14:35:47:277,0.70,0.13,-0.22,0.24,-0.02,-0.06,
14:35:47:278,0.70,0.13,-0.23,0.24,-0.02,-0.06,
14:35:47:279,0.70,0.12,-0.22,0.24,-0.02,-0.06,
14:35:47:288,0.70,0.11,-0.23,0.24,-0.02,-0.06,
14:35:47:289,0.70,0.11,-0.23,0.23,-0.01,-0.15,
14:35:47:290,0.70,0.10,-0.22,0.23,-0.01,-0.15,
14:35:47:290,0.70,0.09,-0.23,0.23,-0.01,-0.15,
14:35:47:290,0.70,0.09,-0.23,0.18,-0.02,-0.25,
14:35:47:291,0.69,0.07,-0.23,0.18,-0.02,-0.25,
14:35:47:291,0.69,0.06,-0.22,0.18,-0.02,-0.25,
14:35:47:291,0.69,0.06,-0.22,0.10,-0.02,-0.35,
14:35:47:292,0.68,0.04,-0.22,0.10,-0.02,-0.35,
14:35:47:294,0.68,0.04,-0.22,-0.01,-0.02,-0.44,
14:35:47:294,0.68,0.03,-0.22,-0.01,-0.02,-0.44,
14:35:47:295,0.67,0.01,-0.22,-0.01,-0.02,-0.44,
14:35:47:306,0.67,0.01,-0.22,-0.09,-0.02,-0.54,
14:35:47:306,0.66,-0.01,-0.22,-0.09,-0.02,-0.54,
14:35:47:307,0.66,-0.02,-0.22,-0.09,-0.02,-0.54,
14:35:47:307,0.66,-0.02,-0.22,-0.18,-0.05,-0.61,
14:35:47:307,0.65,-0.04,-0.22,-0.18,-0.05,-0.61,
14:35:47:308,0.65,-0.05,-0.21,-0.18,-0.05,-0.61,
14:35:47:308,0.64,-0.07,-0.21,-0.18,-0.05,-0.61,
14:35:47:308,0.64,-0.07,-0.21,-0.25,-0.06,-0.67,
14:35:47:309,0.64,-0.08,-0.21,-0.25,-0.06,-0.67,
14:35:47:318,0.64,-0.08,-0.21,-0.29,-0.07,-0.68,
14:35:47:319,0.63,-0.09,-0.21,-0.29,-0.07,-0.68,
14:35:47:320,0.63,-0.09,-0.21,-0.29,-0.07,-0.68,
14:35:47:320,0.63,-0.09,-0.21,-0.32,-0.05,-0.68,
14:35:47:321,0.63,-0.10,-0.21,-0.32,-0.05,-0.68,
14:35:47:321,0.62,-0.11,-0.21,-0.32,-0.05,-0.68,
14:35:47:321,0.62,-0.11,-0.21,-0.28,-0.04,-0.65,
14:35:47:322,0.61,-0.11,-0.21,-0.28,-0.04,-0.65,
14:35:47:337,0.61,-0.11,-0.21,-0.28,-0.04,-0.65,
14:35:47:338,0.61,-0.11,-0.21,-0.28,-0.04,-0.65,
14:35:47:338,0.61,-0.11,-0.21,-0.21,-0.04,-0.63,
14:35:47:338,0.61,-0.11,-0.21,-0.21,-0.04,-0.63,
14:35:47:338,0.60,-0.11,-0.21,-0.21,-0.04,-0.63,
14:35:47:338,0.60,-0.11,-0.21,-0.13,-0.06,-0.61,
14:35:47:338,0.60,-0.11,-0.21,-0.13,-0.06,-0.61,
14:35:47:338,0.60,-0.11,-0.21,-0.09,-0.08,-0.58,
14:35:47:338,0.59,-0.11,-0.21,-0.09,-0.08,-0.58,
14:35:47:339,0.59,-0.11,-0.21,-0.09,-0.08,-0.58,
14:35:47:339,0.59,-0.11,-0.21,-0.05,-0.10,-0.53,
14:35:47:339,0.59,-0.11,-0.21,-0.05,-0.10,-0.53,
14:35:47:339,0.58,-0.11,-0.21,-0.05,-0.10,-0.53,
14:35:47:339,0.58,-0.11,-0.21,-0.05,-0.10,-0.48,
14:35:47:339,0.58,-0.11,-0.21,-0.05,-0.10,-0.48,
14:35:47:339,0.58,-0.11,-0.20,-0.05,-0.10,-0.48,
14:35:47:343,0.58,-0.11,-0.20,-0.08,-0.11,-0.43,
14:35:47:344,0.58,-0.12,-0.20,-0.08,-0.11,-0.43,
14:35:47:344,0.59,-0.13,-0.20,-0.08,-0.11,-0.43,
14:35:47:346,0.59,-0.13,-0.20,-0.08,-0.10,-0.36,
14:35:47:346,0.59,-0.14,-0.20,-0.08,-0.10,-0.36,
14:35:47:349,0.59,-0.14,-0.20,-0.08,-0.10,-0.36,
14:35:47:349,0.59,-0.14,-0.20,-0.06,-0.11,-0.27,
14:35:47:350,0.59,-0.15,-0.20,-0.06,-0.11,-0.27,
14:35:47:353,0.60,-0.16,-0.20,-0.06,-0.11,-0.27,
14:35:47:354,0.60,-0.16,-0.20,0.01,-0.11,-0.18,
14:35:47:354,0.61,-0.16,-0.21,0.01,-0.11,-0.18,
14:35:47:355,0.61,-0.17,-0.21,0.01,-0.11,-0.18,
14:35:47:357,0.62,-0.18,-0.22,0.01,-0.11,-0.18,
14:35:47:358,0.62,-0.18,-0.22,0.14,-0.08,-0.09,
14:35:47:359,0.62,-0.19,-0.22,0.14,-0.08,-0.09,
14:35:47:362,0.63,-0.20,-0.23,0.14,-0.08,-0.09,
14:35:47:362,0.63,-0.20,-0.23,0.23,-0.04,-0.03,
14:35:47:364,0.63,-0.22,-0.23,0.23,-0.04,-0.03,
14:35:47:370,0.63,-0.22,-0.23,0.26,0.00,-0.00,
14:35:47:370,0.64,-0.23,-0.24,0.26,0.00,-0.00,
14:35:47:383,0.65,-0.24,-0.25,0.26,0.00,-0.00,
14:35:47:384,0.65,-0.24,-0.25,0.29,0.06,0.00,
14:35:47:384,0.65,-0.26,-0.26,0.29,0.06,0.00,
14:35:47:384,0.65,-0.27,-0.27,0.29,0.06,0.00,
14:35:47:385,0.65,-0.28,-0.28,0.29,0.06,0.00,
14:35:47:385,0.65,-0.28,-0.28,0.34,0.06,-0.02,
14:35:47:385,0.65,-0.30,-0.29,0.34,0.06,-0.02,
14:35:47:386,0.65,-0.32,-0.30,0.34,0.06,-0.02,
14:35:47:386,0.65,-0.32,-0.30,0.42,0.09,-0.09,
14:35:47:386,0.64,-0.33,-0.30,0.42,0.09,-0.09,
14:35:47:386,0.64,-0.33,-0.30,0.44,0.12,-0.16,
14:35:47:387,0.64,-0.34,-0.32,0.44,0.12,-0.16,
14:35:47:387,0.64,-0.35,-0.32,0.44,0.12,-0.16,
14:35:47:387,0.64,-0.35,-0.32,0.38,0.19,-0.24,
14:35:47:387,0.63,-0.35,-0.33,0.38,0.19,-0.24,
14:35:47:388,0.62,-0.36,-0.33,0.38,0.19,-0.24,
14:35:47:391,0.62,-0.36,-0.33,0.29,0.25,-0.35,
14:35:47:392,0.61,-0.36,-0.34,0.29,0.25,-0.35,
14:35:47:394,0.60,-0.35,-0.34,0.29,0.25,-0.35,
14:35:47:395,0.58,-0.35,-0.35,0.29,0.25,-0.35,
14:35:47:395,0.58,-0.35,-0.35,0.25,0.30,-0.46,
14:35:47:395,0.57,-0.34,-0.35,0.25,0.30,-0.46,
14:35:47:399,0.57,-0.34,-0.35,0.24,0.31,-0.60,
14:35:47:400,0.55,-0.34,-0.36,0.24,0.31,-0.60,
14:35:47:400,0.53,-0.33,-0.36,0.24,0.31,-0.60,
14:35:47:405,0.53,-0.33,-0.36,0.25,0.30,-0.76,
14:35:47:405,0.51,-0.32,-0.37,0.25,0.30,-0.76,
14:35:47:406,0.50,-0.31,-0.37,0.25,0.30,-0.76,
14:35:47:406,0.47,-0.30,-0.38,0.25,0.30,-0.76,
14:35:47:406,0.47,-0.30,-0.38,0.25,0.31,-0.87,
14:35:47:408,0.45,-0.29,-0.38,0.25,0.31,-0.87,
14:35:47:409,0.45,-0.29,-0.38,0.23,0.31,-0.93,
14:35:47:410,0.42,-0.27,-0.39,0.23,0.31,-0.93,
14:35:47:411,0.40,-0.25,-0.40,0.23,0.31,-0.93,
14:35:47:415,0.38,-0.23,-0.40,0.23,0.31,-0.93,
14:35:47:416,0.38,-0.23,-0.40,0.24,0.27,-0.96,
14:35:47:416,0.36,-0.21,-0.41,0.24,0.27,-0.96,
14:35:47:419,0.36,-0.21,-0.41,0.29,0.18,-0.94,
14:35:47:419,0.34,-0.18,-0.42,0.29,0.18,-0.94,
14:35:47:420,0.32,-0.16,-0.42,0.29,0.18,-0.94,
14:35:47:422,0.32,-0.16,-0.42,0.36,0.12,-0.81,
14:35:47:423,0.31,-0.14,-0.42,0.36,0.12,-0.81,
14:35:47:423,0.30,-0.11,-0.42,0.36,0.12,-0.81,
14:35:47:427,0.29,-0.09,-0.42,0.36,0.12,-0.81,
14:35:47:428,0.29,-0.09,-0.42,0.33,0.05,-0.58,
14:35:47:428,0.28,-0.07,-0.41,0.33,0.05,-0.58,
14:35:47:431,0.28,-0.07,-0.41,0.24,0.01,-0.35,
14:35:47:431,0.27,-0.05,-0.41,0.24,0.01,-0.35,
14:35:47:432,0.27,-0.03,-0.41,0.24,0.01,-0.35,
14:35:47:435,0.27,-0.03,-0.41,0.10,-0.04,-0.13,
14:35:47:436,0.27,-0.02,-0.41,0.10,-0.04,-0.13,
14:35:47:437,0.27,-0.01,-0.40,0.10,-0.04,-0.13,
14:35:47:438,0.27,-0.01,-0.40,0.03,-0.10,0.04,
14:35:47:438,0.26,-0.00,-0.40,0.03,-0.10,0.04,
14:35:47:439,0.26,-0.00,-0.40,0.03,-0.10,0.04,
14:35:47:443,0.26,0.00,-0.41,0.03,-0.10,0.04,
14:35:47:444,0.26,0.00,-0.41,-0.02,-0.16,0.22,
14:35:47:444,0.27,-0.00,-0.41,-0.02,-0.16,0.22,
14:35:47:445,0.27,-0.00,-0.41,-0.02,-0.16,0.22,
14:35:47:445,0.27,-0.00,-0.41,-0.04,-0.22,0.41,
14:35:47:448,0.28,-0.01,-0.42,-0.04,-0.22,0.41,
14:35:47:451,0.29,-0.01,-0.43,-0.04,-0.22,0.41,
14:35:47:452,0.29,-0.01,-0.43,-0.01,-0.26,0.61,
14:35:47:453,0.30,-0.02,-0.44,-0.01,-0.26,0.61,
14:35:47:481,0.31,-0.02,-0.44,-0.01,-0.26,0.61,
14:35:47:482,0.31,-0.02,-0.44,0.06,-0.28,0.84,
14:35:47:482,0.32,-0.03,-0.45,0.06,-0.28,0.84,
14:35:47:483,0.32,-0.03,-0.45,0.11,-0.31,1.04,
14:35:47:483,0.34,-0.03,-0.45,0.11,-0.31,1.04,
14:35:47:483,0.35,-0.04,-0.45,0.11,-0.31,1.04,
14:35:47:484,0.35,-0.04,-0.45,0.08,-0.31,1.21,
14:35:47:484,0.37,-0.05,-0.45,0.08,-0.31,1.21,
14:35:47:484,0.38,-0.07,-0.45,0.08,-0.31,1.21,
14:35:47:485,0.38,-0.07,-0.45,-0.02,-0.29,1.31,
14:35:47:485,0.40,-0.09,-0.46,-0.02,-0.29,1.31,
14:35:47:486,0.41,-0.11,-0.46,-0.02,-0.29,1.31,
14:35:47:486,0.42,-0.14,-0.47,-0.02,-0.29,1.31,
14:35:47:486,0.42,-0.14,-0.47,-0.09,-0.30,1.30,
14:35:47:486,0.44,-0.17,-0.48,-0.09,-0.30,1.30,
14:35:47:487,0.45,-0.20,-0.48,-0.09,-0.30,1.30,
14:35:47:487,0.45,-0.20,-0.48,-0.10,-0.31,1.23,
14:35:47:487,0.46,-0.23,-0.49,-0.10,-0.31,1.23,
14:35:47:487,0.47,-0.26,-0.50,-0.10,-0.31,1.23,
14:35:47:488,0.47,-0.26,-0.50,-0.09,-0.31,1.19,
14:35:47:488,0.48,-0.30,-0.51,-0.09,-0.31,1.19,
14:35:47:488,0.48,-0.30,-0.51,-0.06,-0.27,1.14,
14:35:47:488,0.49,-0.33,-0.52,-0.06,-0.27,1.14,
14:35:47:489,0.50,-0.37,-0.53,-0.06,-0.27,1.14,
14:35:47:489,0.50,-0.37,-0.53,-0.06,-0.20,1.07,
14:35:47:489,0.51,-0.40,-0.54,-0.06,-0.20,1.07,
14:35:47:489,0.52,-0.43,-0.54,-0.06,-0.20,1.07,
14:35:47:493,0.52,-0.43,-0.54,-0.12,-0.10,0.98,
14:35:47:494,0.53,-0.46,-0.55,-0.12,-0.10,0.98,
14:35:47:494,0.54,-0.50,-0.55,-0.12,-0.10,0.98,
14:35:47:495,0.54,-0.50,-0.55,-0.22,-0.03,0.89,
14:35:47:495,0.54,-0.53,-0.56,-0.22,-0.03,0.89,
14:35:47:495,0.54,-0.58,-0.56,-0.22,-0.03,0.89,
14:35:47:502,0.55,-0.62,-0.57,-0.22,-0.03,0.89,
14:35:47:503,0.55,-0.62,-0.57,-0.31,-0.01,0.74,
14:35:47:504,0.55,-0.66,-0.57,-0.31,-0.01,0.74,
14:35:47:504,0.55,-0.71,-0.58,-0.31,-0.01,0.74,
14:35:47:504,0.55,-0.71,-0.58,-0.36,-0.03,0.59,
14:35:47:504,0.55,-0.75,-0.59,-0.36,-0.03,0.59,
14:35:47:507,0.55,-0.75,-0.59,-0.37,-0.05,0.52,
14:35:47:508,0.55,-0.79,-0.60,-0.37,-0.05,0.52,
14:35:47:508,0.55,-0.82,-0.61,-0.37,-0.05,0.52,
14:35:47:512,0.55,-0.86,-0.62,-0.37,-0.05,0.52,
14:35:47:513,0.55,-0.86,-0.62,-0.33,-0.05,0.48,
14:35:47:513,0.55,-0.89,-0.62,-0.33,-0.05,0.48,
14:35:47:513,0.55,-0.92,-0.63,-0.33,-0.05,0.48,
14:35:47:514,0.55,-0.92,-0.63,-0.25,-0.07,0.49,
14:35:47:521,0.56,-0.93,-0.64,-0.25,-0.07,0.49,
14:35:47:521,0.56,-0.94,-0.64,-0.25,-0.07,0.49,
14:35:47:522,0.56,-0.94,-0.64,-0.17,-0.12,0.52,
14:35:47:522,0.56,-0.95,-0.65,-0.17,-0.12,0.52,
14:35:47:522,0.56,-0.95,-0.65,-0.08,-0.18,0.53,
14:35:47:523,0.56,-0.95,-0.65,-0.08,-0.18,0.53,
14:35:47:523,0.56,-0.94,-0.65,-0.08,-0.18,0.53,
14:35:47:525,0.55,-0.93,-0.65,-0.08,-0.18,0.53,
14:35:47:525,0.55,-0.93,-0.65,-0.03,-0.22,0.53,
14:35:47:528,0.55,-0.91,-0.65,-0.03,-0.22,0.53,
14:35:47:530,0.55,-0.91,-0.65,-0.01,-0.27,0.53,
14:35:47:531,0.55,-0.88,-0.65,-0.01,-0.27,0.53,
14:35:47:531,0.54,-0.85,-0.64,-0.01,-0.27,0.53,
14:35:47:534,0.53,-0.82,-0.64,-0.01,-0.27,0.53,
14:35:47:534,0.53,-0.82,-0.64,0.03,-0.33,0.51,
14:35:47:535,0.53,-0.78,-0.63,0.03,-0.33,0.51,
14:35:47:538,0.53,-0.78,-0.63,0.08,-0.41,0.45,
14:35:47:539,0.51,-0.75,-0.63,0.08,-0.41,0.45,
14:35:47:539,0.50,-0.71,-0.63,0.08,-0.41,0.45,
14:35:47:542,0.49,-0.67,-0.62,0.08,-0.41,0.45,
14:35:47:543,0.49,-0.67,-0.62,0.09,-0.46,0.38,
14:35:47:543,0.48,-0.63,-0.61,0.09,-0.46,0.38,
14:35:47:546,0.47,-0.58,-0.61,0.09,-0.46,0.38,
14:35:47:547,0.47,-0.58,-0.61,0.07,-0.48,0.29,
14:35:47:547,0.46,-0.54,-0.60,0.07,-0.48,0.29,
14:35:47:550,0.46,-0.54,-0.60,0.06,-0.48,0.23,
14:35:47:551,0.44,-0.49,-0.59,0.06,-0.48,0.23,
14:35:47:552,0.44,-0.44,-0.59,0.06,-0.48,0.23,
14:35:47:554,0.42,-0.40,-0.58,0.06,-0.48,0.23,
14:35:47:555,0.42,-0.40,-0.58,0.03,-0.47,0.21,
14:35:47:555,0.42,-0.36,-0.57,0.03,-0.47,0.21,
14:35:47:558,0.41,-0.31,-0.56,0.03,-0.47,0.21,
14:35:47:558,0.41,-0.31,-0.56,-0.01,-0.47,0.22,
14:35:47:560,0.40,-0.27,-0.56,-0.01,-0.47,0.22,
14:35:47:562,0.40,-0.27,-0.56,-0.07,-0.51,0.25,
14:35:47:563,0.39,-0.23,-0.55,-0.07,-0.51,0.25,
14:35:47:563,0.39,-0.19,-0.54,-0.07,-0.51,0.25,
14:35:47:567,0.38,-0.15,-0.53,-0.07,-0.51,0.25,
14:35:47:568,0.38,-0.15,-0.53,-0.14,-0.56,0.26,
14:35:47:569,0.37,-0.12,-0.51,-0.14,-0.56,0.26,
14:35:47:570,0.37,-0.12,-0.51,-0.20,-0.62,0.26,
14:35:47:571,0.37,-0.09,-0.50,-0.20,-0.62,0.26,
14:35:47:571,0.36,-0.07,-0.49,-0.20,-0.62,0.26,
14:35:47:575,0.36,-0.04,-0.47,-0.20,-0.62,0.26,
14:35:47:576,0.36,-0.04,-0.47,-0.31,-0.66,0.24,
14:35:47:576,0.36,-0.03,-0.46,-0.31,-0.66,0.24,
14:35:47:577,0.35,-0.01,-0.45,-0.31,-0.66,0.24,
14:35:47:577,0.35,-0.01,-0.45,-0.42,-0.71,0.22,
14:35:47:580,0.35,-0.00,-0.43,-0.42,-0.71,0.22,
14:35:47:589,0.35,-0.00,-0.43,-0.55,-0.76,0.17,
14:35:47:591,0.34,-0.00,-0.42,-0.55,-0.76,0.17,
14:35:47:591,0.34,-0.00,-0.41,-0.55,-0.76,0.17,
14:35:47:592,0.34,-0.01,-0.40,-0.55,-0.76,0.17,
14:35:47:635,0.34,-0.01,-0.40,-0.64,-0.82,0.08,
14:35:47:636,0.33,-0.02,-0.40,-0.64,-0.82,0.08,
14:35:47:636,0.33,-0.02,-0.40,-0.67,-0.87,0.01,
14:35:47:638,0.34,-0.04,-0.40,-0.67,-0.87,0.01,
14:35:47:639,0.34,-0.05,-0.39,-0.67,-0.87,0.01,
14:35:47:639,0.35,-0.07,-0.39,-0.67,-0.87,0.01,
14:35:47:639,0.35,-0.07,-0.39,-0.61,-0.91,0.01,
14:35:47:640,0.36,-0.09,-0.39,-0.61,-0.91,0.01,
14:35:47:640,0.37,-0.12,-0.39,-0.61,-0.91,0.01,
14:35:47:640,0.37,-0.12,-0.39,-0.53,-0.89,0.11,
14:35:47:641,0.38,-0.14,-0.40,-0.53,-0.89,0.11,
14:35:47:641,0.40,-0.17,-0.40,-0.53,-0.89,0.11,
14:35:47:641,0.40,-0.17,-0.40,-0.42,-0.84,0.25,
14:35:47:641,0.42,-0.19,-0.41,-0.42,-0.84,0.25,
14:35:47:642,0.44,-0.21,-0.42,-0.42,-0.84,0.25,
14:35:47:642,0.44,-0.21,-0.42,-0.27,-0.79,0.40,
14:35:47:642,0.46,-0.22,-0.43,-0.27,-0.79,0.40,
14:35:47:642,0.46,-0.22,-0.43,-0.07,-0.81,0.55,
14:35:47:643,0.48,-0.24,-0.45,-0.07,-0.81,0.55,
14:35:47:643,0.50,-0.25,-0.46,-0.07,-0.81,0.55,
14:35:47:643,0.50,-0.25,-0.46,0.16,-0.87,0.65,
14:35:47:643,0.52,-0.26,-0.48,0.16,-0.87,0.65,
14:35:47:644,0.54,-0.26,-0.49,0.16,-0.87,0.65,
14:35:47:644,0.54,-0.26,-0.49,0.35,-0.89,0.69,
14:35:47:645,0.56,-0.27,-0.50,0.35,-0.89,0.69,
14:35:47:646,0.57,-0.27,-0.51,0.35,-0.89,0.69,
14:35:47:646,0.57,-0.27,-0.51,0.42,-0.90,0.68,
14:35:47:646,0.59,-0.26,-0.51,0.42,-0.90,0.68,
14:35:47:647,0.60,-0.26,-0.52,0.42,-0.90,0.68,
14:35:47:647,0.60,-0.26,-0.52,0.37,-0.92,0.59,
14:35:47:647,0.61,-0.25,-0.52,0.37,-0.92,0.59,
14:35:47:647,0.62,-0.24,-0.52,0.37,-0.92,0.59,
