time,ax,ay,az,wx,wy,wz,Unnamed: 10
10:34:46:359,0.0,0.0,0.0,0.0,0.0,0.0,
10:34:46:360,0.0,0.0,0.0,0.0,0.0,0.0,
10:34:46:360,0.0,0.0,0.0,0.0,0.0,0.0,
10:34:46:361,0.0,0.0,0.0,0.0,0.0,0.0,
10:34:46:447,0.0,0.0,0.0,0.0,0.0,0.0,
10:34:46:449,0.0,0.0,0.0,0.0,0.0,0.0,
10:34:46:451,0.0,0.0,0.0,0.0,0.0,0.0,
10:34:46:452,0.0,0.0,0.0,0.0,0.0,0.0,
10:34:46:453,0.0,0.0,0.0,0.0,0.0,0.0,
10:34:46:454,0.0,0.0,0.0,0.0051,-0.0057,0.0004,
10:34:46:457,-0.0035,0.0042,0.0285,0.0051,-0.0057,0.0004,
10:34:46:503,-0.0035,0.0042,0.0285,0.0051,-0.0057,0.0004,
10:34:46:505,-0.0035,0.0042,0.0285,0.0051,-0.0057,0.0004,
10:34:46:506,-0.0035,0.0042,0.0285,0.0051,-0.0057,0.0004,
10:34:46:509,-0.0035,0.0042,0.0285,0.0063,-0.0118,0.0077,
10:34:46:511,-0.0188,-0.0085,0.0123,0.0063,-0.0118,0.0077,
10:34:46:561,-0.0188,-0.0085,0.0123,0.0063,-0.0118,0.0077,
10:34:46:564,-0.0188,-0.0085,0.0123,0.0063,-0.0118,0.0077,
10:34:46:566,-0.0188,-0.0085,0.0123,0.0063,-0.0118,0.0077,
10:34:46:567,-0.0188,-0.0085,0.0123,0.0214,-0.004,0.0122,
10:34:46:568,-0.0273,-0.0126,-0.0525,0.0214,-0.004,0.0122,
10:34:46:618,-0.0273,-0.0126,-0.0525,0.0214,-0.004,0.0122,
10:34:46:620,-0.0273,-0.0126,-0.0525,0.0214,-0.004,0.0122,
10:34:46:621,-0.0273,-0.0126,-0.0525,0.0214,-0.004,0.0122,
10:34:46:622,-0.0273,-0.0126,-0.0525,-0.0148,0.0037,0.0448,
10:34:46:625,0.0553,0.0601,0.091,-0.0148,0.0037,0.0448,
10:34:46:680,0.0553,0.0601,0.091,-0.0148,0.0037,0.0448,
10:34:46:682,0.0553,0.0601,0.091,-0.0148,0.0037,0.0448,
10:34:46:684,0.0553,0.0601,0.091,-0.0148,0.0037,0.0448,
10:34:46:685,0.0553,0.0601,0.091,-0.0014,0.0021,0.0867,
10:34:46:686,-0.0182,0.0357,-0.0851,-0.0014,0.0021,0.0867,
10:34:46:735,-0.0182,0.0357,-0.0851,-0.0014,0.0021,0.0867,
10:34:46:737,-0.0182,0.0357,-0.0851,-0.0014,0.0021,0.0867,
10:34:46:738,-0.0182,0.0357,-0.0851,-0.0014,0.0021,0.0867,
10:34:46:739,-0.0182,0.0357,-0.0851,0.0112,-0.0049,0.0993,
10:34:46:739,0.0674,-0.0424,0.0859,0.0112,-0.0049,0.0993,
10:34:46:797,0.0674,-0.0424,0.0859,0.0112,-0.0049,0.0993,
10:34:46:799,0.0674,-0.0424,0.0859,0.0112,-0.0049,0.0993,
10:34:46:801,0.0674,-0.0424,0.0859,0.0112,-0.0049,0.0993,
10:34:46:802,0.0674,-0.0424,0.0859,0.0075,0.0053,0.1002,
10:34:46:803,-0.0041,0.0019,-0.1222,0.0075,0.0053,0.1002,
10:34:46:853,-0.0041,0.0019,-0.1222,0.0075,0.0053,0.1002,
10:34:46:855,-0.0041,0.0019,-0.1222,0.0075,0.0053,0.1002,
10:34:46:856,-0.0041,0.0019,-0.1222,0.0075,0.0053,0.1002,
10:34:46:858,-0.0041,0.0019,-0.1222,0.0377,0.0037,-0.0037,
10:34:46:859,-0.0325,-0.1416,0.0123,0.0377,0.0037,-0.0037,
10:34:46:910,-0.0325,-0.1416,0.0123,0.0377,0.0037,-0.0037,
10:34:46:912,-0.0325,-0.1416,0.0123,0.0377,0.0037,-0.0037,
10:34:46:914,-0.0325,-0.1416,0.0123,0.0377,0.0037,-0.0037,
10:34:46:915,-0.0325,-0.1416,0.0123,0.0153,-0.015,-0.0554,
10:34:46:917,-0.0172,0.008,-0.0252,0.0153,-0.015,-0.0554,
10:34:46:968,-0.0172,0.008,-0.0252,0.0153,-0.015,-0.0554,
10:34:46:970,-0.0172,0.008,-0.0252,0.0153,-0.015,-0.0554,
10:34:46:971,-0.0172,0.008,-0.0252,0.0153,-0.015,-0.0554,
10:34:46:972,-0.0172,0.008,-0.0252,0.0079,-0.0118,-0.0191,
10:34:46:973,-0.0049,-0.0099,0.0393,0.0079,-0.0118,-0.0191,
10:34:47:030,-0.0049,-0.0099,0.0393,0.0079,-0.0118,-0.0191,
10:34:47:032,-0.0049,-0.0099,0.0393,0.0079,-0.0118,-0.0191,
10:34:47:034,-0.0049,-0.0099,0.0393,0.0079,-0.0118,-0.0191,
10:34:47:037,-0.0049,-0.0099,0.0393,0.0438,-0.024,-0.0126,
10:34:47:039,-0.0252,0.0396,-0.0713,0.0438,-0.024,-0.0126,
10:34:47:084,-0.0252,0.0396,-0.0713,0.0438,-0.024,-0.0126,
10:34:47:086,-0.0252,0.0396,-0.0713,0.0438,-0.024,-0.0126,
10:34:47:087,-0.0252,0.0396,-0.0713,0.0438,-0.024,-0.0126,
10:34:47:087,-0.0252,0.0396,-0.0713,0.0531,-0.0004,0.0028,
10:34:47:088,0.0123,-0.019,-0.0068,0.0531,-0.0004,0.0028,
10:34:47:142,0.0123,-0.019,-0.0068,0.0531,-0.0004,0.0028,
10:34:47:145,0.0123,-0.019,-0.0068,0.0531,-0.0004,0.0028,
10:34:47:147,0.0123,-0.019,-0.0068,0.0531,-0.0004,0.0028,
10:34:47:148,0.0123,-0.019,-0.0068,0.0719,-0.0615,0.0362,
10:34:47:150,0.061,0.064,0.0772,0.0719,-0.0615,0.0362,
10:34:47:201,0.061,0.064,0.0772,0.0719,-0.0615,0.0362,
10:34:47:203,0.061,0.064,0.0772,0.0719,-0.0615,0.0362,
10:34:47:204,0.061,0.064,0.0772,0.0719,-0.0615,0.0362,
10:34:47:206,0.061,0.064,0.0772,0.1183,-0.1193,0.0171,
10:34:47:208,-0.0674,-0.0478,-0.0762,0.1183,-0.1193,0.0171,
10:34:47:263,-0.0674,-0.0478,-0.0762,0.1183,-0.1193,0.0171,
10:34:47:266,-0.0674,-0.0478,-0.0762,0.1183,-0.1193,0.0171,
10:34:47:268,-0.0674,-0.0478,-0.0762,0.1183,-0.1193,0.0171,
10:34:47:270,-0.0674,-0.0478,-0.0762,0.0548,-0.103,0.055,
10:34:47:272,0.0495,0.033,-0.0131,0.0548,-0.103,0.055,
10:34:47:319,0.0495,0.033,-0.0131,0.0548,-0.103,0.055,
10:34:47:321,0.0495,0.033,-0.0131,0.0548,-0.103,0.055,
10:34:47:321,0.0495,0.033,-0.0131,0.0548,-0.103,0.055,
10:34:47:322,0.0495,0.033,-0.0131,0.0153,-0.0036,0.0729,
10:34:47:326,-0.018,0.0865,-0.0029,0.0153,-0.0036,0.0729,
10:34:47:377,-0.018,0.0865,-0.0029,-0.0173,-0.0004,-0.0025,
10:34:47:381,0.0095,-0.2282,-0.0499,-0.0173,-0.0004,-0.0025,
10:34:47:406,0.0095,-0.2282,-0.0499,-0.0173,-0.0004,-0.0025,
10:34:47:412,0.0095,-0.2282,-0.0499,-0.0173,-0.0004,-0.0025,
10:34:47:415,0.0095,-0.2282,-0.0499,-0.0173,-0.0004,-0.0025,
10:34:47:416,0.0095,-0.2282,-0.0499,-0.0173,-0.0004,-0.0025,
10:34:47:454,0.0095,-0.2282,-0.0499,0.0365,-0.125,0.0285,
10:34:47:456,0.0564,0.1471,0.0785,0.0365,-0.125,0.0285,
10:34:47:494,0.0564,0.1471,0.0785,0.0662,-0.1934,0.0537,
10:34:47:496,0.0564,0.1471,0.0785,0.0662,-0.1934,0.0537,
10:34:47:499,0.0564,0.1471,0.0785,0.0662,-0.1934,0.0537,
10:34:47:501,0.0564,0.1471,0.0785,0.0662,-0.1934,0.0537,
10:34:47:502,0.0564,0.1471,0.0785,0.0662,-0.1934,0.0537,
10:34:47:503,0.0564,0.1471,0.0785,0.0662,-0.1934,0.0537,
10:34:47:505,0.0849,0.1428,0.0469,0.0662,-0.1934,0.0537,
10:34:47:550,0.0849,0.1428,0.0469,0.0462,-0.2761,0.0366,
10:34:47:552,0.0076,0.1144,0.0288,0.0462,-0.2761,0.0366,
10:34:47:581,0.0076,0.1144,0.0288,0.0462,-0.2761,0.0366,
10:34:47:584,0.0076,0.1144,0.0288,0.0462,-0.2761,0.0366,
10:34:47:585,0.0076,0.1144,0.0288,0.0462,-0.2761,0.0366,
10:34:47:587,0.0076,0.1144,0.0288,0.0462,-0.2761,0.0366,
10:34:47:633,0.0253,-0.005,-0.0817,0.0462,-0.2761,0.0366,
10:34:47:634,0.0253,-0.005,-0.0817,0.0645,-0.2077,0.0619,
10:34:47:659,0.0253,-0.005,-0.0817,-0.0637,0.0314,-0.0257,
10:34:47:662,0.0253,-0.005,-0.0817,-0.0637,0.0314,-0.0257,
10:34:47:665,0.0253,-0.005,-0.0817,-0.0637,0.0314,-0.0257,
10:34:47:667,0.0253,-0.005,-0.0817,-0.0637,0.0314,-0.0257,
10:34:47:668,0.0253,-0.005,-0.0817,-0.0637,0.0314,-0.0257,
10:34:47:670,0.0098,-0.0064,-0.0444,-0.0637,0.0314,-0.0257,
10:34:47:707,-0.1363,-0.2063,-0.0092,-0.0637,0.0314,-0.0257,
10:34:47:710,-0.1363,-0.2063,-0.0092,-0.0026,-0.2146,-0.0701,
10:34:47:748,-0.1363,-0.2063,-0.0092,-0.0026,-0.2146,-0.0701,
10:34:47:752,-0.1363,-0.2063,-0.0092,-0.0026,-0.2146,-0.0701,
10:34:47:753,-0.1363,-0.2063,-0.0092,-0.0026,-0.2146,-0.0701,
10:34:47:754,-0.1363,-0.2063,-0.0092,-0.0026,-0.2146,-0.0701,
10:34:47:754,-0.1363,-0.2063,-0.0092,-0.0026,-0.2146,-0.0701,
10:34:47:803,-0.1363,-0.2063,-0.0092,-0.0454,-0.0383,-0.0253,
10:34:47:805,0.1177,0.2196,0.001,-0.0454,-0.0383,-0.0253,
10:34:47:833,0.1177,0.2196,0.001,-0.1224,0.0802,-0.0538,
10:34:47:835,0.0823,0.2071,0.0651,-0.1224,0.0802,-0.0538,
10:34:47:836,0.0823,0.2071,0.0651,-0.1224,0.0802,-0.0538,
10:34:47:837,0.0823,0.2071,0.0651,-0.1224,0.0802,-0.0538,
10:34:47:838,0.0823,0.2071,0.0651,-0.1224,0.0802,-0.0538,
10:34:47:839,0.0823,0.2071,0.0651,-0.1224,0.0802,-0.0538,
10:34:47:881,0.0823,0.2071,0.0651,-0.1435,0.1466,-0.0525,
10:34:47:883,-0.035,-0.1188,0.0439,-0.1435,0.1466,-0.0525,
10:34:47:922,-0.035,-0.1188,0.0439,-0.1435,0.1466,-0.0525,
10:34:47:925,-0.035,-0.1188,0.0439,-0.1435,0.1466,-0.0525,
10:34:47:930,-0.035,-0.1188,0.0439,-0.1435,0.1466,-0.0525,
10:34:47:932,-0.035,-0.1188,0.0439,-0.1435,0.1466,-0.0525,
10:34:47:933,-0.035,-0.1188,0.0439,-0.1435,0.1466,-0.0525,
10:34:47:980,-0.0693,-0.0976,0.0793,-0.1435,0.1466,-0.0525,
10:34:47:981,-0.0693,-0.0976,0.0793,-0.0882,0.1702,0.0745,
10:34:47:987,-0.0693,-0.0976,0.0793,-0.0882,0.1702,0.0745,
10:34:47:989,-0.0693,-0.0976,0.0793,-0.0882,0.1702,0.0745,
10:34:47:990,-0.0693,-0.0976,0.0793,-0.0882,0.1702,0.0745,
10:34:48:036,-0.0693,-0.0976,0.0793,-0.0287,0.0652,-0.002,
10:34:48:037,-0.0619,-0.1159,-0.1702,-0.0287,0.0652,-0.002,
10:34:48:076,-0.0619,-0.1159,-0.1702,-0.0462,-0.0268,-0.0419,
10:34:48:077,-0.0619,-0.1159,-0.1702,-0.0462,-0.0268,-0.0419,
10:34:48:080,-0.0619,-0.1159,-0.1702,-0.0462,-0.0268,-0.0419,
10:34:48:081,-0.0619,-0.1159,-0.1702,-0.0462,-0.0268,-0.0419,
10:34:48:082,-0.0619,-0.1159,-0.1702,-0.0462,-0.0268,-0.0419,
10:34:48:082,-0.0619,-0.1159,-0.1702,-0.0462,-0.0268,-0.0419,
10:34:48:084,-0.0824,-0.1151,-0.1377,-0.0462,-0.0268,-0.0419,
10:34:48:133,-0.0824,-0.1151,-0.1377,-0.0254,-0.0297,-0.0497,
10:34:48:136,0.0301,0.0261,0.1246,-0.0254,-0.0297,-0.0497,
10:34:48:164,0.0301,0.0261,0.1246,-0.0254,-0.0297,-0.0497,
10:34:48:166,0.0301,0.0261,0.1246,-0.0254,-0.0297,-0.0497,
10:34:48:168,0.0301,0.0261,0.1246,-0.0254,-0.0297,-0.0497,
10:34:48:170,0.0301,0.0261,0.1246,-0.0254,-0.0297,-0.0497,
10:34:48:214,0.0301,0.0261,0.1246,-0.0279,-0.0297,-0.0025,
10:34:48:216,-0.0148,-0.1635,-0.1252,-0.0279,-0.0297,-0.0025,
10:34:48:250,-0.0148,-0.1635,-0.1252,-0.0523,-0.0472,-0.0656,
10:34:48:254,-0.0148,-0.1635,-0.1252,-0.0523,-0.0472,-0.0656,
10:34:48:256,-0.0148,-0.1635,-0.1252,-0.0523,-0.0472,-0.0656,
10:34:48:258,-0.0148,-0.1635,-0.1252,-0.0523,-0.0472,-0.0656,
10:34:48:261,-0.0148,-0.1635,-0.1252,-0.0523,-0.0472,-0.0656,
10:34:48:263,-0.0148,-0.1635,-0.1252,-0.0523,-0.0472,-0.0656,
10:34:48:266,-0.0494,-0.1632,-0.09,-0.0523,-0.0472,-0.0656,
10:34:48:310,-0.0494,-0.1632,-0.09,-0.0267,-0.0391,-0.0305,
10:34:48:312,0.0329,0.0414,0.1439,-0.0267,-0.0391,-0.0305,
10:34:48:338,0.0329,0.0414,0.1439,-0.0267,-0.0391,-0.0305,
10:34:48:340,0.0329,0.0414,0.1439,-0.0267,-0.0391,-0.0305,
10:34:48:341,0.0329,0.0414,0.1439,-0.0267,-0.0391,-0.0305,
10:34:48:343,0.0329,0.0414,0.1439,-0.0267,-0.0391,-0.0305,
10:34:48:386,0.0329,0.0414,0.1439,-0.0519,-0.0737,0.0346,
10:34:48:389,-0.0411,-0.0042,0.0884,-0.0519,-0.0737,0.0346,
10:34:48:426,-0.0033,-0.0031,0.1201,-0.0519,-0.0737,0.0346,
10:34:48:429,-0.0033,-0.0031,0.1201,-0.0776,-0.0468,0.0627,
10:34:48:432,-0.0033,-0.0031,0.1201,-0.0776,-0.0468,0.0627,
10:34:48:434,-0.0033,-0.0031,0.1201,-0.0776,-0.0468,0.0627,
10:34:48:436,-0.0033,-0.0031,0.1201,-0.0776,-0.0468,0.0627,
10:34:48:437,-0.0033,-0.0031,0.1201,-0.0776,-0.0468,0.0627,
10:34:48:439,-0.0033,-0.0031,0.1201,-0.0776,-0.0468,0.0627,
10:34:48:483,-0.0033,-0.0031,0.1201,-0.0934,-0.037,0.0171,
10:34:48:485,-0.0336,-0.0659,-0.0846,-0.0934,-0.037,0.0171,
10:34:48:512,-0.0336,-0.0659,-0.0846,-0.0934,-0.037,0.0171,
10:34:48:514,-0.0336,-0.0659,-0.0846,-0.0934,-0.037,0.0171,
10:34:48:515,-0.0336,-0.0659,-0.0846,-0.0934,-0.037,0.0171,
10:34:48:516,-0.0336,-0.0659,-0.0846,-0.0934,-0.037,0.0171,
10:34:48:563,-0.0336,-0.0659,-0.0846,-0.1114,-0.0236,-0.0362,
10:34:48:566,-0.0886,-0.0802,-0.1496,-0.1114,-0.0236,-0.0362,
10:34:48:600,-0.0886,-0.0802,-0.1496,-0.1427,-0.0325,-0.1157,
10:34:48:602,-0.0886,-0.0802,-0.1496,-0.1427,-0.0325,-0.1157,
10:34:48:604,-0.0886,-0.0802,-0.1496,-0.1427,-0.0325,-0.1157,
10:34:48:606,-0.0886,-0.0802,-0.1496,-0.1427,-0.0325,-0.1157,
10:34:48:609,-0.0886,-0.0802,-0.1496,-0.1427,-0.0325,-0.1157,
10:34:48:612,-0.0886,-0.0802,-0.1496,-0.1427,-0.0325,-0.1157,
10:34:48:614,-0.1495,-0.0899,-0.0644,-0.1427,-0.0325,-0.1157,
10:34:48:657,-0.1495,-0.0899,-0.0644,-0.1224,-0.0631,-0.125,
10:34:48:660,0.0992,0.022,0.1497,-0.1224,-0.0631,-0.125,
10:34:48:685,0.0992,0.022,0.1497,-0.1224,-0.0631,-0.125,
10:34:48:687,0.0992,0.022,0.1497,-0.1224,-0.0631,-0.125,
10:34:48:689,0.0992,0.022,0.1497,-0.1224,-0.0631,-0.125,
10:34:48:690,0.0992,0.022,0.1497,-0.1224,-0.0631,-0.125,
10:34:48:735,0.1002,0.098,0.0676,-0.1224,-0.0631,-0.125,
10:34:48:736,0.1002,0.098,0.0676,-0.0788,-0.0635,-0.0778,
10:34:48:760,0.1002,0.098,0.0676,-0.0975,-0.0558,-0.0102,
10:34:48:761,0.095,0.0899,0.1233,-0.0975,-0.0558,-0.0102,
10:34:48:763,0.095,0.0899,0.1233,-0.0975,-0.0558,-0.0102,
10:34:48:764,0.095,0.0899,0.1233,-0.0975,-0.0558,-0.0102,
10:34:48:765,0.095,0.0899,0.1233,-0.0975,-0.0558,-0.0102,
10:34:48:765,0.095,0.0899,0.1233,-0.0975,-0.0558,-0.0102,
10:34:48:812,0.095,0.0899,0.1233,-0.0857,-0.0554,-0.0106,
10:34:48:813,-0.0183,0.0038,-0.0746,-0.0857,-0.0554,-0.0106,
10:34:48:847,-0.0183,0.0038,-0.0746,-0.0857,-0.0554,-0.0106,
10:34:48:848,-0.0183,0.0038,-0.0746,-0.0857,-0.0554,-0.0106,
10:34:48:850,-0.0183,0.0038,-0.0746,-0.0857,-0.0554,-0.0106,
10:34:48:851,-0.0183,0.0038,-0.0746,-0.0857,-0.0554,-0.0106,
10:34:48:890,-0.0183,0.0038,-0.0746,-0.1008,-0.0366,0.0248,
10:34:48:891,0.055,0.0646,0.2006,-0.1008,-0.0366,0.0248,
10:34:48:935,-0.0078,-0.0616,-0.0896,-0.1008,-0.0366,0.0248,
10:34:48:935,-0.0078,-0.0616,-0.0896,-0.1224,-0.0016,0.0656,
10:34:48:936,-0.0078,-0.0616,-0.0896,-0.1224,-0.0016,0.0656,
10:34:48:936,-0.0078,-0.0616,-0.0896,-0.1224,-0.0016,0.0656,
10:34:48:937,-0.0078,-0.0616,-0.0896,-0.1224,-0.0016,0.0656,
10:34:48:937,-0.0078,-0.0616,-0.0896,-0.1224,-0.0016,0.0656,
10:34:48:937,-0.0078,-0.0616,-0.0896,-0.1224,-0.0016,0.0656,
10:34:48:988,-0.0078,-0.0616,-0.0896,-0.113,0.0224,0.0313,
10:34:48:988,-0.0338,-0.027,-0.0705,-0.113,0.0224,0.0313,
10:34:49:020,-0.0338,-0.027,-0.0705,-0.113,0.0224,0.0313,
10:34:49:022,-0.0338,-0.027,-0.0705,-0.113,0.0224,0.0313,
10:34:49:022,-0.0338,-0.027,-0.0705,-0.113,0.0224,0.0313,
10:34:49:023,-0.0338,-0.027,-0.0705,-0.113,0.0224,0.0313,
10:34:49:065,-0.0338,-0.027,-0.0705,-0.0987,0.042,-0.0078,
10:34:49:065,0.0088,-0.0603,-0.014,-0.0987,0.042,-0.0078,
10:34:49:091,0.0088,-0.0603,-0.014,-0.0987,0.042,-0.0078,
10:34:49:094,0.0088,-0.0603,-0.014,-0.0987,0.042,-0.0078,
10:34:49:096,0.0088,-0.0603,-0.014,-0.0987,0.042,-0.0078,
10:34:49:098,0.0088,-0.0603,-0.014,-0.0987,0.042,-0.0078,
10:34:49:144,0.0088,-0.0603,-0.014,-0.0377,0.0257,-0.0725,
10:34:49:147,-0.0348,-0.0172,0.0351,-0.0377,0.0257,-0.0725,
10:34:49:177,-0.0348,-0.0172,0.0351,-0.0629,0.0383,-0.1132,
10:34:49:180,-0.0348,-0.0172,0.0351,-0.0629,0.0383,-0.1132,
10:34:49:181,-0.0348,-0.0172,0.0351,-0.0629,0.0383,-0.1132,
10:34:49:183,-0.0348,-0.0172,0.0351,-0.0629,0.0383,-0.1132,
10:34:49:184,-0.0348,-0.0172,0.0351,-0.0629,0.0383,-0.1132,
10:34:49:185,-0.0907,-0.0256,0.0609,-0.0629,0.0383,-0.1132,
10:34:49:220,-0.0907,-0.0256,0.0609,-0.0613,0.0595,-0.0692,
10:34:49:222,0.0548,0.0039,-0.0339,-0.0613,0.0595,-0.0692,
10:34:49:265,0.0548,0.0039,-0.0339,-0.0613,0.0595,-0.0692,
10:34:49:267,0.0548,0.0039,-0.0339,-0.0613,0.0595,-0.0692,
10:34:49:269,0.0548,0.0039,-0.0339,-0.0613,0.0595,-0.0692,
10:34:49:272,0.0548,0.0039,-0.0339,-0.0613,0.0595,-0.0692,
10:34:49:273,0.0548,0.0039,-0.0339,-0.0613,0.0595,-0.0692,
10:34:49:317,0.0548,0.0039,-0.0339,-0.0837,0.0538,-0.0591,
10:34:49:318,-0.02,-0.0127,-0.1435,-0.0837,0.0538,-0.0591,
10:34:49:353,-0.02,-0.0127,-0.1435,-0.0637,0.0245,-0.0835,
10:34:49:355,-0.02,-0.0127,-0.1435,-0.0637,0.0245,-0.0835,
10:34:49:357,-0.02,-0.0127,-0.1435,-0.0637,0.0245,-0.0835,
10:34:49:359,-0.02,-0.0127,-0.1435,-0.0637,0.0245,-0.0835,
10:34:49:361,-0.02,-0.0127,-0.1435,-0.0637,0.0245,-0.0835,
10:34:49:363,-0.068,-0.0232,-0.1069,-0.0637,0.0245,-0.0835,
10:34:49:396,-0.068,-0.0232,-0.1069,-0.0755,0.0025,-0.0151,
10:34:49:399,0.0922,0.0279,0.0519,-0.0755,0.0025,-0.0151,
10:34:49:421,0.0922,0.0279,0.0519,-0.0755,0.0025,-0.0151,
10:34:49:423,0.0922,0.0279,0.0519,-0.0755,0.0025,-0.0151,
10:34:49:425,0.0922,0.0279,0.0519,-0.0755,0.0025,-0.0151,
10:34:49:427,0.0922,0.0279,0.0519,-0.0755,0.0025,-0.0151,
10:34:49:472,0.0922,0.0279,0.0519,-0.0723,-0.0277,0.024,
10:34:49:475,0.033,-0.0082,0.036,-0.0723,-0.0277,0.024,
10:34:49:513,0.033,-0.0082,0.036,-0.0723,-0.0277,0.024,
10:34:49:516,0.033,-0.0082,0.036,-0.0723,-0.0277,0.024,
10:34:49:518,0.033,-0.0082,0.036,-0.0723,-0.0277,0.024,
10:34:49:520,0.033,-0.0082,0.036,-0.0723,-0.0277,0.024,
10:34:49:549,0.033,-0.0082,0.036,-0.023,-0.0334,0.057,
10:34:49:551,0.0628,0.0277,-0.1174,-0.023,-0.0334,0.057,
10:34:49:594,0.0628,0.0277,-0.1174,0.0328,-0.0163,0.0745,
10:34:49:596,0.0628,0.0277,-0.1174,0.0328,-0.0163,0.0745,
10:34:49:596,0.0628,0.0277,-0.1174,0.0328,-0.0163,0.0745,
10:34:49:597,0.0628,0.0277,-0.1174,0.0328,-0.0163,0.0745,
10:34:49:599,0.0628,0.0277,-0.1174,0.0328,-0.0163,0.0745,
10:34:49:599,0.0628,0.0277,-0.1174,0.0328,-0.0163,0.0745,
10:34:49:600,0.0946,0.0316,-0.1199,0.0328,-0.0163,0.0745,
10:34:49:648,0.0946,0.0316,-0.1199,0.0295,0.0648,0.1433,
10:34:49:650,0.0945,-0.0415,0.0578,0.0295,0.0648,0.1433,
10:34:49:683,0.0945,-0.0415,0.0578,0.0295,0.0648,0.1433,
10:34:49:685,0.0945,-0.0415,0.0578,0.0295,0.0648,0.1433,
10:34:49:686,0.0945,-0.0415,0.0578,0.0295,0.0648,0.1433,
10:34:49:688,0.0945,-0.0415,0.0578,0.0295,0.0648,0.1433,
10:34:49:725,0.0945,-0.0415,0.0578,0.0165,0.0403,0.0407,
10:34:49:726,-0.1843,-0.0926,-0.0944,0.0165,0.0403,0.0407,
10:34:49:751,-0.1843,-0.0926,-0.0944,0.0686,0.024,-0.0607,
10:34:49:754,-0.1843,-0.0926,-0.0944,0.0686,0.024,-0.0607,
10:34:49:755,-0.1843,-0.0926,-0.0944,0.0686,0.024,-0.0607,
10:34:49:757,-0.1843,-0.0926,-0.0944,0.0686,0.024,-0.0607,
10:34:49:759,-0.1843,-0.0926,-0.0944,0.0686,0.024,-0.0607,
10:34:49:761,-0.217,-0.089,-0.1326,0.0686,0.024,-0.0607,
10:34:49:803,-0.217,-0.089,-0.1326,0.0039,-0.094,-0.1727,
10:34:49:806,-0.0117,0.0679,0.0258,0.0039,-0.094,-0.1727,
10:34:49:839,-0.0117,0.0679,0.0258,0.0039,-0.094,-0.1727,
10:34:49:842,-0.0117,0.0679,0.0258,0.0039,-0.094,-0.1727,
10:34:49:844,-0.0117,0.0679,0.0258,0.0039,-0.094,-0.1727,
10:34:49:846,-0.0117,0.0679,0.0258,0.0039,-0.094,-0.1727,
10:34:49:881,-0.0117,0.0679,0.0258,0.032,-0.0167,-0.0884,
10:34:49:883,-0.0053,-0.0606,0.0204,0.032,-0.0167,-0.0884,
10:34:49:926,-0.0053,-0.0606,0.0204,0.1281,-0.046,-0.1625,
10:34:49:929,-0.0053,-0.0606,0.0204,0.1281,-0.046,-0.1625,
10:34:49:930,-0.0053,-0.0606,0.0204,0.1281,-0.046,-0.1625,
10:34:49:931,-0.0053,-0.0606,0.0204,0.1281,-0.046,-0.1625,
10:34:49:933,-0.0053,-0.0606,0.0204,0.1281,-0.046,-0.1625,
10:34:49:935,-0.0053,-0.0606,0.0204,0.1281,-0.046,-0.1625,
10:34:49:936,-0.1651,0.0266,-0.568,0.1281,-0.046,-0.1625,
10:34:49:977,-0.1651,0.0266,-0.568,0.0959,0.0135,-0.0236,
10:34:49:979,0.0416,0.0153,0.3376,0.0959,0.0135,-0.0236,
10:34:50:011,0.0416,0.0153,0.3376,0.0959,0.0135,-0.0236,
10:34:50:014,0.0416,0.0153,0.3376,0.0959,0.0135,-0.0236,
10:34:50:016,0.0416,0.0153,0.3376,0.0959,0.0135,-0.0236,
10:34:50:018,0.0416,0.0153,0.3376,0.0959,0.0135,-0.0236,
10:34:50:056,0.0416,0.0153,0.3376,0.0165,0.0017,0.0432,
10:34:50:061,0.0883,0.0423,0.1454,0.0165,0.0017,0.0432,
10:34:50:082,0.0883,0.0423,0.1454,0.0165,0.0017,0.0432,
10:34:50:084,0.0883,0.0423,0.1454,0.0165,0.0017,0.0432,
10:34:50:086,0.0883,0.0423,0.1454,0.0165,0.0017,0.0432,
10:34:50:087,0.0883,0.0423,0.1454,0.0165,0.0017,0.0432,
10:34:50:132,0.0883,0.0423,0.1454,0.0246,-0.0004,0.0142,
10:34:50:134,-0.0707,-0.0309,-0.0166,0.0246,-0.0004,0.0142,
10:34:50:169,-0.0707,-0.0309,-0.0166,-0.0031,0.0204,0.0085,
10:34:50:171,-0.0662,-0.0299,-0.0161,-0.0031,0.0204,0.0085,
10:34:50:173,-0.0662,-0.0299,-0.0161,-0.0031,0.0204,0.0085,
10:34:50:175,-0.0662,-0.0299,-0.0161,-0.0031,0.0204,0.0085,
10:34:50:177,-0.0662,-0.0299,-0.0161,-0.0031,0.0204,0.0085,
10:34:50:179,-0.0662,-0.0299,-0.0161,-0.0031,0.0204,0.0085,
10:34:50:210,-0.0662,-0.0299,-0.0161,-0.0311,0.0106,0.0387,
10:34:50:212,0.0796,0.0221,0.1168,-0.0311,0.0106,0.0387,
10:34:50:257,0.0796,0.0221,0.1168,-0.0311,0.0106,0.0387,
10:34:50:260,0.0796,0.0221,0.1168,-0.0311,0.0106,0.0387,
10:34:50:261,0.0796,0.0221,0.1168,-0.0311,0.0106,0.0387,
10:34:50:263,0.0796,0.0221,0.1168,-0.0311,0.0106,0.0387,
10:34:50:264,0.0796,0.0221,0.1168,-0.0311,0.0106,0.0387,
10:34:50:307,0.0796,0.0221,0.1168,0.0393,0.0611,0.0721,
10:34:50:310,-0.0799,-0.044,-0.0845,0.0393,0.0611,0.0721,
10:34:50:344,-0.0799,-0.044,-0.0845,0.0633,0.0432,0.0493,
10:34:50:347,-0.0489,-0.0319,-0.1098,0.0633,0.0432,0.0493,
10:34:50:349,-0.0489,-0.0319,-0.1098,0.0633,0.0432,0.0493,
10:34:50:350,-0.0489,-0.0319,-0.1098,0.0633,0.0432,0.0493,
10:34:50:351,-0.0489,-0.0319,-0.1098,0.0633,0.0432,0.0493,
10:34:50:353,-0.0489,-0.0319,-0.1098,0.0633,0.0432,0.0493,
10:34:50:385,-0.0489,-0.0319,-0.1098,0.0401,0.0464,0.0265,
10:34:50:388,-0.0076,0.0042,-0.0534,0.0401,0.0464,0.0265,
10:34:50:413,-0.0076,0.0042,-0.0534,0.0401,0.0464,0.0265,
10:34:50:415,-0.0076,0.0042,-0.0534,0.0401,0.0464,0.0265,
10:34:50:417,-0.0076,0.0042,-0.0534,0.0401,0.0464,0.0265,
10:34:50:418,-0.0076,0.0042,-0.0534,0.0401,0.0464,0.0265,
10:34:50:463,-0.0076,0.0042,-0.0534,0.0507,0.0354,0.0037,
10:34:50:466,0.0219,-0.0112,0.0396,0.0507,0.0354,0.0037,
10:34:50:500,0.0219,-0.0112,0.0396,0.0507,0.0354,0.0037,
10:34:50:503,0.0219,-0.0112,0.0396,0.0507,0.0354,0.0037,
10:34:50:505,0.0219,-0.0112,0.0396,0.0507,0.0354,0.0037,
10:34:50:506,0.0219,-0.0112,0.0396,0.0507,0.0354,0.0037,
10:34:50:540,0.0219,-0.0112,0.0396,0.0413,-0.0154,-0.0081,
10:34:50:543,-0.0397,0.0006,0.0372,0.0413,-0.0154,-0.0081,
10:34:50:587,-0.0397,0.0006,0.0372,0.0092,0.0037,0.026,
10:34:50:590,-0.0397,0.0006,0.0372,0.0092,0.0037,0.026,
10:34:50:592,-0.0397,0.0006,0.0372,0.0092,0.0037,0.026,
10:34:50:594,-0.0397,0.0006,0.0372,0.0092,0.0037,0.026,
10:34:50:595,-0.0397,0.0006,0.0372,0.0092,0.0037,0.026,
10:34:50:596,-0.0397,0.0006,0.0372,0.0092,0.0037,0.026,
10:34:50:597,-0.0223,0.0026,0.0282,0.0092,0.0037,0.026,
10:34:50:638,-0.0223,0.0026,0.0282,0.0291,-0.0065,-0.0098,
10:34:50:639,0.0061,0.017,-0.0694,0.0291,-0.0065,-0.0098,
10:34:50:675,0.0061,0.017,-0.0694,0.0291,-0.0065,-0.0098,
10:34:50:678,0.0061,0.017,-0.0694,0.0291,-0.0065,-0.0098,
10:34:50:680,0.0061,0.017,-0.0694,0.0291,-0.0065,-0.0098,
10:34:50:681,0.0061,0.017,-0.0694,0.0291,-0.0065,-0.0098,
10:34:50:718,0.0061,0.017,-0.0694,0.0568,0.0025,-0.0232,
10:34:50:722,0.0779,0.0383,0.0412,0.0568,0.0025,-0.0232,
10:34:50:761,0.0779,0.0383,0.0412,0.043,-0.0073,0.0179,
10:34:50:770,0.0788,0.0376,0.0152,0.043,-0.0073,0.0179,
10:34:50:772,0.0788,0.0376,0.0152,0.043,-0.0073,0.0179,
10:34:50:774,0.0788,0.0376,0.0152,0.043,-0.0073,0.0179,
10:34:50:776,0.0788,0.0376,0.0152,0.043,-0.0073,0.0179,
10:34:50:778,0.0788,0.0376,0.0152,0.043,-0.0073,0.0179,
10:34:50:780,0.0788,0.0376,0.0152,0.043,-0.0073,0.0179,
10:34:50:813,0.0788,0.0376,0.0152,0.0674,-0.0269,-0.0045,
10:34:50:815,-0.0201,-0.0021,-0.0791,0.0674,-0.0269,-0.0045,
10:34:50:849,-0.0201,-0.0021,-0.0791,0.0674,-0.0269,-0.0045,
10:34:50:852,-0.0201,-0.0021,-0.0791,0.0674,-0.0269,-0.0045,
10:34:50:854,-0.0201,-0.0021,-0.0791,0.0674,-0.0269,-0.0045,
10:34:50:856,-0.0201,-0.0021,-0.0791,0.0674,-0.0269,-0.0045,
10:34:50:889,-0.0201,-0.0021,-0.0791,0.0401,0.0155,0.026,
10:34:50:891,-0.1089,-0.0896,-0.1757,0.0401,0.0155,0.026,
10:34:50:935,-0.1089,-0.0896,-0.1757,0.0421,0.0237,0.0106,
10:34:50:937,-0.1025,-0.0849,-0.1981,0.0421,0.0237,0.0106,
10:34:50:938,-0.1025,-0.0849,-0.1981,0.0421,0.0237,0.0106,
10:34:50:939,-0.1025,-0.0849,-0.1981,0.0421,0.0237,0.0106,
10:34:50:940,-0.1025,-0.0849,-0.1981,0.0421,0.0237,0.0106,
10:34:50:941,-0.1025,-0.0849,-0.1981,0.0421,0.0237,0.0106,
10:34:50:941,-0.1025,-0.0849,-0.1981,0.0421,0.0237,0.0106,
10:34:50:987,-0.1025,-0.0849,-0.1981,0.0719,0.0147,0.0024,
10:34:50:989,0.0126,-0.0243,0.0164,0.0719,0.0147,0.0024,
10:34:51:022,0.0126,-0.0243,0.0164,0.0719,0.0147,0.0024,
10:34:51:024,0.0126,-0.0243,0.0164,0.0719,0.0147,0.0024,
10:34:51:025,0.0126,-0.0243,0.0164,0.0719,0.0147,0.0024,
10:34:51:028,0.0126,-0.0243,0.0164,0.0719,0.0147,0.0024,
10:34:51:065,0.0126,-0.0243,0.0164,0.0165,0.0387,0.0721,
10:34:51:068,-0.0105,-0.0182,-0.0944,0.0165,0.0387,0.0721,
10:34:51:110,-0.0105,-0.0182,-0.0944,0.056,-0.0195,-0.0261,
10:34:51:113,-0.0239,-0.0166,-0.1229,0.056,-0.0195,-0.0261,
10:34:51:114,-0.0239,-0.0166,-0.1229,0.056,-0.0195,-0.0261,
10:34:51:116,-0.0239,-0.0166,-0.1229,0.056,-0.0195,-0.0261,
10:34:51:117,-0.0239,-0.0166,-0.1229,0.056,-0.0195,-0.0261,
10:34:51:118,-0.0239,-0.0166,-0.1229,0.056,-0.0195,-0.0261,
10:34:51:120,-0.0239,-0.0166,-0.1229,0.056,-0.0195,-0.0261,
10:34:51:163,-0.0239,-0.0166,-0.1229,0.0556,0.0,-0.0155,
10:34:51:165,0.0337,0.0711,-0.0047,0.0556,0.0,-0.0155,
10:34:51:185,0.0337,0.0711,-0.0047,0.0556,0.0,-0.0155,
10:34:51:189,0.0337,0.0711,-0.0047,0.0556,0.0,-0.0155,
10:34:51:191,0.0337,0.0711,-0.0047,0.0556,0.0,-0.0155,
10:34:51:193,0.0337,0.0711,-0.0047,0.0556,0.0,-0.0155,
10:34:51:240,-0.0447,0.1253,-0.1752,0.0556,0.0,-0.0155,
10:34:51:243,-0.0447,0.1253,-0.1752,0.0145,-0.011,0.0195,
10:34:51:272,-0.0447,0.1253,-0.1752,0.0153,0.1022,0.0835,
10:34:51:274,-0.0447,0.1253,-0.1752,0.0153,0.1022,0.0835,
10:34:51:277,-0.0447,0.1253,-0.1752,0.0153,0.1022,0.0835,
10:34:51:279,-0.0447,0.1253,-0.1752,0.0153,0.1022,0.0835,
10:34:51:281,-0.0447,0.1253,-0.1752,0.0153,0.1022,0.0835,
10:34:51:283,-0.0025,0.1294,-0.1874,0.0153,0.1022,0.0835,
10:34:51:318,-0.0025,0.1294,-0.1874,0.0621,0.2114,0.2109,
10:34:51:321,0.0642,0.0441,0.0661,0.0621,0.2114,0.2109,
10:34:51:358,0.0642,0.0441,0.0661,0.0621,0.2114,0.2109,
10:34:51:361,0.0642,0.0441,0.0661,0.0621,0.2114,0.2109,
10:34:51:363,0.0642,0.0441,0.0661,0.0621,0.2114,0.2109,
10:34:51:364,0.0642,0.0441,0.0661,0.0621,0.2114,0.2109,
10:34:51:365,0.0642,0.0441,0.0661,0.0621,0.2114,0.2109,
10:34:51:416,0.0642,0.0441,0.0661,0.0645,0.0908,0.123,
10:34:51:419,-0.046,-0.0872,0.0589,0.0645,0.0908,0.123,
10:34:51:445,-0.046,-0.0872,0.0589,-0.0197,0.0501,0.0835,
10:34:51:448,-0.0005,-0.0824,0.0665,-0.0197,0.0501,0.0835,
10:34:51:450,-0.0005,-0.0824,0.0665,-0.0197,0.0501,0.0835,
10:34:51:452,-0.0005,-0.0824,0.0665,-0.0197,0.0501,0.0835,
10:34:51:453,-0.0005,-0.0824,0.0665,-0.0197,0.0501,0.0835,
10:34:51:454,-0.0005,-0.0824,0.0665,-0.0197,0.0501,0.0835,
10:34:51:493,0.0287,0.0995,-0.0451,-0.0197,0.0501,0.0835,
10:34:51:495,0.0287,0.0995,-0.0451,0.021,0.0749,0.0452,
10:34:51:522,0.0287,0.0995,-0.0451,0.021,0.0749,0.0452,
10:34:51:525,0.0287,0.0995,-0.0451,0.021,0.0749,0.0452,
10:34:51:528,0.0287,0.0995,-0.0451,0.021,0.0749,0.0452,
10:34:51:530,0.0287,0.0995,-0.0451,0.021,0.0749,0.0452,
10:34:51:571,0.0287,0.0995,-0.0451,-0.0177,0.1311,0.0741,
10:34:51:574,0.0467,0.1139,0.0565,-0.0177,0.1311,0.0741,
10:34:51:601,0.0467,0.1139,0.0565,-0.0177,0.1311,0.0741,
10:34:51:603,0.0467,0.1139,0.0565,-0.0177,0.1311,0.0741,
10:34:51:604,0.0467,0.1139,0.0565,-0.0177,0.1311,0.0741,
10:34:51:605,0.0467,0.1139,0.0565,-0.0177,0.1311,0.0741,
10:34:51:648,0.0467,0.1139,0.0565,0.0153,0.1487,0.0594,
10:34:51:651,0.0374,0.2419,0.0391,0.0153,0.1487,0.0594,
10:34:51:690,0.0374,0.2419,0.0391,0.0442,0.1857,0.0558,
10:34:51:694,0.0542,0.219,0.0048,0.0442,0.1857,0.0558,
10:34:51:696,0.0542,0.219,0.0048,0.0442,0.1857,0.0558,
10:34:51:697,0.0542,0.219,0.0048,0.0442,0.1857,0.0558,
10:34:51:698,0.0542,0.219,0.0048,0.0442,0.1857,0.0558,
10:34:51:700,0.0542,0.219,0.0048,0.0442,0.1857,0.0558,
10:34:51:701,0.0542,0.219,0.0048,0.0442,0.1857,0.0558,
10:34:51:746,0.0542,0.219,0.0048,0.0348,0.1739,0.0827,
10:34:51:750,0.0133,-0.3129,0.0183,0.0348,0.1739,0.0827,
10:34:51:776,0.0133,-0.3129,0.0183,0.0348,0.1739,0.0827,
10:34:51:779,0.0133,-0.3129,0.0183,0.0348,0.1739,0.0827,
10:34:51:782,0.0133,-0.3129,0.0183,0.0348,0.1739,0.0827,
10:34:51:784,0.0133,-0.3129,0.0183,0.0348,0.1739,0.0827,
10:34:51:824,0.0133,-0.3129,0.0183,0.0413,0.1515,0.088,
10:34:51:827,0.0157,-0.0373,0.0599,0.0413,0.1515,0.088,
10:34:51:850,0.0157,-0.0373,0.0599,0.0922,0.0513,0.0301,
10:34:51:853,0.0157,-0.0373,0.0599,0.0922,0.0513,0.0301,
10:34:51:856,0.0157,-0.0373,0.0599,0.0922,0.0513,0.0301,
10:34:51:861,0.0157,-0.0373,0.0599,0.0922,0.0513,0.0301,
10:34:51:865,0.0157,-0.0373,0.0599,0.0922,0.0513,0.0301,
10:34:51:866,0.0304,-0.032,0.0051,0.0922,0.0513,0.0301,
10:34:51:900,0.0304,-0.032,0.0051,0.1879,-0.0721,-0.1315,
10:34:51:902,0.0094,-0.2856,-0.1585,0.1879,-0.0721,-0.1315,
10:34:51:931,0.0094,-0.2856,-0.1585,0.1879,-0.0721,-0.1315,
10:34:51:934,0.0094,-0.2856,-0.1585,0.1879,-0.0721,-0.1315,
10:34:51:936,0.0094,-0.2856,-0.1585,0.1879,-0.0721,-0.1315,
10:34:51:938,0.0094,-0.2856,-0.1585,0.1879,-0.0721,-0.1315,
10:34:51:978,0.0094,-0.2856,-0.1585,-0.0841,-0.0269,-0.0623,
10:34:51:980,0.1193,-0.7985,0.0276,-0.0841,-0.0269,-0.0623,
10:34:52:016,0.1193,-0.7985,0.0276,-0.0841,-0.0269,-0.0623,
10:34:52:018,0.1193,-0.7985,0.0276,-0.0841,-0.0269,-0.0623,
10:34:52:020,0.1193,-0.7985,0.0276,-0.0841,-0.0269,-0.0623,
10:34:52:021,0.1193,-0.7985,0.0276,-0.0841,-0.0269,-0.0623,
10:34:52:056,0.1193,-0.7985,0.0276,-0.3272,-0.1103,-0.1922,
10:34:52:060,0.0196,0.9239,-0.0398,-0.3272,-0.1103,-0.1922,
10:34:52:104,0.0196,0.9239,-0.0398,-0.0857,-0.0529,-0.0933,
10:34:52:107,0.0196,0.9239,-0.0398,-0.0857,-0.0529,-0.0933,
10:34:52:110,0.0196,0.9239,-0.0398,-0.0857,-0.0529,-0.0933,
10:34:52:112,0.0196,0.9239,-0.0398,-0.0857,-0.0529,-0.0933,
10:34:52:114,0.0196,0.9239,-0.0398,-0.0857,-0.0529,-0.0933,
10:34:52:115,0.0196,0.9239,-0.0398,-0.0857,-0.0529,-0.0933,
10:34:52:117,-0.0303,0.8997,0.0114,-0.0857,-0.0529,-0.0933,
10:34:52:153,-0.0303,0.8997,0.0114,-0.0641,-0.0362,-0.1413,
10:34:52:155,-0.0194,-0.1162,0.2045,-0.0641,-0.0362,-0.1413,
10:34:52:191,-0.0194,-0.1162,0.2045,-0.0641,-0.0362,-0.1413,
10:34:52:194,-0.0194,-0.1162,0.2045,-0.0641,-0.0362,-0.1413,
10:34:52:196,-0.0194,-0.1162,0.2045,-0.0641,-0.0362,-0.1413,
10:34:52:198,-0.0194,-0.1162,0.2045,-0.0641,-0.0362,-0.1413,
10:34:52:230,-0.0194,-0.1162,0.2045,-0.1325,0.0249,0.0102,
10:34:52:231,-0.0304,-0.1228,-0.1346,-0.1325,0.0249,0.0102,
10:34:52:278,-0.0304,-0.1228,-0.1346,-0.1158,0.0464,0.0228,
10:34:52:280,-0.0304,-0.1228,-0.1346,-0.1158,0.0464,0.0228,
10:34:52:282,-0.0304,-0.1228,-0.1346,-0.1158,0.0464,0.0228,
10:34:52:284,-0.0304,-0.1228,-0.1346,-0.1158,0.0464,0.0228,
10:34:52:285,-0.0304,-0.1228,-0.1346,-0.1158,0.0464,0.0228,
10:34:52:286,-0.0304,-0.1228,-0.1346,-0.1158,0.0464,0.0228,
10:34:52:288,-0.0198,-0.1258,-0.0707,-0.1158,0.0464,0.0228,
10:34:52:328,0.0094,-0.0565,-0.1357,-0.1158,0.0464,0.0228,
10:34:52:330,0.0094,-0.0565,-0.1357,-0.0568,0.0383,-0.002,
10:34:52:365,0.0094,-0.0565,-0.1357,-0.0568,0.0383,-0.002,
10:34:52:369,0.0094,-0.0565,-0.1357,-0.0568,0.0383,-0.002,
10:34:52:370,0.0094,-0.0565,-0.1357,-0.0568,0.0383,-0.002,
10:34:52:371,0.0094,-0.0565,-0.1357,-0.0568,0.0383,-0.002,
10:34:52:405,0.0988,-0.0182,0.1608,-0.0568,0.0383,-0.002,
10:34:52:408,0.0988,-0.0182,0.1608,-0.0478,0.0253,0.0045,
10:34:52:452,0.0988,-0.0182,0.1608,0.0039,-0.0607,0.171,
10:34:52:455,0.1963,-0.0082,0.1593,0.0039,-0.0607,0.171,
10:34:52:457,0.1963,-0.0082,0.1593,0.0039,-0.0607,0.171,
10:34:52:459,0.1963,-0.0082,0.1593,0.0039,-0.0607,0.171,
10:34:52:460,0.1963,-0.0082,0.1593,0.0039,-0.0607,0.171,
10:34:52:462,0.1963,-0.0082,0.1593,0.0039,-0.0607,0.171,
10:34:52:463,0.1963,-0.0082,0.1593,0.0039,-0.0607,0.171,
10:34:52:503,0.1963,-0.0082,0.1593,-0.0022,0.0033,0.6218,
10:34:52:507,0.1609,-0.2084,-0.2664,-0.0022,0.0033,0.6218,
10:34:52:543,0.1609,-0.2084,-0.2664,-0.0022,0.0033,0.6218,
10:34:52:546,0.1609,-0.2084,-0.2664,-0.0022,0.0033,0.6218,
10:34:52:547,0.1609,-0.2084,-0.2664,-0.0022,0.0033,0.6218,
10:34:52:548,0.1609,-0.2084,-0.2664,-0.0022,0.0033,0.6218,
10:34:52:580,0.1609,-0.2084,-0.2664,0.0075,0.1112,0.0949,
10:34:52:581,-0.1708,-0.1223,0.0011,0.0075,0.1112,0.0949,
10:34:52:617,-0.1708,-0.1223,0.0011,-0.0702,0.0505,-0.0762,
10:34:52:620,-0.1708,-0.1223,0.0011,-0.0702,0.0505,-0.0762,
10:34:52:622,-0.1708,-0.1223,0.0011,-0.0702,0.0505,-0.0762,
10:34:52:623,-0.1708,-0.1223,0.0011,-0.0702,0.0505,-0.0762,
10:34:52:625,-0.1708,-0.1223,0.0011,-0.0702,0.0505,-0.0762,
10:34:52:628,-0.2139,-0.127,0.039,-0.0702,0.0505,-0.0762,
10:34:52:658,-0.2139,-0.127,0.039,-0.1293,-0.0171,-0.1967,
10:34:52:661,-0.0518,-0.1667,0.074,-0.1293,-0.0171,-0.1967,
10:34:52:704,-0.0518,-0.1667,0.074,-0.1293,-0.0171,-0.1967,
10:34:52:707,-0.0518,-0.1667,0.074,-0.1293,-0.0171,-0.1967,
10:34:52:709,-0.0518,-0.1667,0.074,-0.1293,-0.0171,-0.1967,
10:34:52:711,-0.0518,-0.1667,0.074,-0.1293,-0.0171,-0.1967,
10:34:52:712,-0.0518,-0.1667,0.074,-0.1293,-0.0171,-0.1967,
10:34:52:755,-0.0518,-0.1667,0.074,-0.1179,-0.0855,-0.1576,
10:34:52:759,0.1039,0.1221,-0.0109,-0.1179,-0.0855,-0.1576,
10:34:52:791,0.1039,0.1221,-0.0109,-0.071,-0.0517,-0.0163,
10:34:52:797,0.1039,0.1221,-0.0109,-0.071,-0.0517,-0.0163,
10:34:52:799,0.1039,0.1221,-0.0109,-0.071,-0.0517,-0.0163,
10:34:52:801,0.1039,0.1221,-0.0109,-0.071,-0.0517,-0.0163,
10:34:52:802,0.1039,0.1221,-0.0109,-0.071,-0.0517,-0.0163,
10:34:52:803,0.0967,0.1142,0.0315,-0.071,-0.0517,-0.0163,
10:34:52:833,0.0967,0.1142,0.0315,-0.0397,-0.0187,0.0118,
10:34:52:837,0.0819,-0.1199,-0.0512,-0.0397,-0.0187,0.0118,
10:34:52:878,0.0819,-0.1199,-0.0512,-0.0397,-0.0187,0.0118,
10:34:52:880,0.0819,-0.1199,-0.0512,-0.0397,-0.0187,0.0118,
10:34:52:883,0.0819,-0.1199,-0.0512,-0.0397,-0.0187,0.0118,
10:34:52:884,0.0819,-0.1199,-0.0512,-0.0397,-0.0187,0.0118,
10:34:52:886,0.0819,-0.1199,-0.0512,-0.0397,-0.0187,0.0118,
10:34:52:929,0.0819,-0.1199,-0.0512,-0.0214,-0.0387,0.0041,
10:34:52:930,0.0959,-0.186,0.2982,-0.0214,-0.0387,0.0041,
10:34:52:945,0.0959,-0.186,0.2982,-0.0214,-0.0387,0.0041,
10:34:52:947,0.0959,-0.186,0.2982,-0.0214,-0.0387,0.0041,
10:34:52:948,0.0959,-0.186,0.2982,-0.0214,-0.0387,0.0041,
10:34:52:987,0.0959,-0.186,0.2982,0.0275,-0.0696,-0.0204,
10:34:52:988,0.121,-0.0735,0.0746,0.0275,-0.0696,-0.0204,
10:34:53:033,0.121,-0.0735,0.0746,-0.0014,-0.048,0.0509,
10:34:53:036,0.121,-0.0735,0.0746,-0.0014,-0.048,0.0509,
10:34:53:038,0.121,-0.0735,0.0746,-0.0014,-0.048,0.0509,
10:34:53:039,0.121,-0.0735,0.0746,-0.0014,-0.048,0.0509,
10:34:53:040,0.121,-0.0735,0.0746,-0.0014,-0.048,0.0509,
10:34:53:043,0.121,-0.0735,0.0746,-0.0014,-0.048,0.0509,
10:34:53:045,0.1509,-0.0702,0.0762,-0.0014,-0.048,0.0509,
10:34:53:085,0.1509,-0.0702,0.0762,0.0328,0.0004,0.0134,
10:34:53:088,-0.0269,-0.2206,-0.1991,0.0328,0.0004,0.0134,
10:34:53:122,-0.0269,-0.2206,-0.1991,0.0328,0.0004,0.0134,
10:34:53:127,-0.0269,-0.2206,-0.1991,0.0328,0.0004,0.0134,
10:34:53:129,-0.0269,-0.2206,-0.1991,0.0328,0.0004,0.0134,
10:34:53:131,-0.0269,-0.2206,-0.1991,0.0328,0.0004,0.0134,
10:34:53:163,-0.0269,-0.2206,-0.1991,0.0666,0.0485,-0.0293,
10:34:53:168,0.0713,0.2627,0.303,0.0666,0.0485,-0.0293,
10:34:53:208,0.0713,0.2627,0.303,-0.0039,-0.0509,-0.0415,
10:34:53:212,0.0713,0.2627,0.303,-0.0039,-0.0509,-0.0415,
10:34:53:213,0.0713,0.2627,0.303,-0.0039,-0.0509,-0.0415,
10:34:53:215,0.0713,0.2627,0.303,-0.0039,-0.0509,-0.0415,
10:34:53:216,0.0713,0.2627,0.303,-0.0039,-0.0509,-0.0415,
10:34:53:217,0.0713,0.2627,0.303,-0.0039,-0.0509,-0.0415,
10:34:53:219,0.0504,0.2563,0.3023,-0.0039,-0.0509,-0.0415,
10:34:53:260,0.0504,0.2563,0.3023,0.01,0.0269,-0.055,
10:34:53:263,-0.019,-0.0666,-0.2523,0.01,0.0269,-0.055,
10:34:53:278,-0.019,-0.0666,-0.2523,0.01,0.0269,-0.055,
10:34:53:281,-0.019,-0.0666,-0.2523,0.01,0.0269,-0.055,
10:34:53:284,-0.019,-0.0666,-0.2523,0.01,0.0269,-0.055,
10:34:53:318,-0.019,-0.0666,-0.2523,-0.0165,-0.002,-0.0008,
10:34:53:321,0.1112,-0.109,0.0922,-0.0165,-0.002,-0.0008,
10:34:53:364,0.1112,-0.109,0.0922,-0.0385,0.0033,-0.0183,
10:34:53:366,0.0039,-0.0293,0.123,-0.0385,0.0033,-0.0183,
10:34:53:370,0.0039,-0.0293,0.123,-0.0385,0.0033,-0.0183,
10:34:53:371,0.0039,-0.0293,0.123,-0.0385,0.0033,-0.0183,
10:34:53:373,0.0039,-0.0293,0.123,-0.0385,0.0033,-0.0183,
10:34:53:374,0.0039,-0.0293,0.123,-0.0385,0.0033,-0.0183,
10:34:53:376,0.0039,-0.0293,0.123,-0.0385,0.0033,-0.0183,
10:34:53:415,0.0039,-0.0293,0.123,-0.0332,-0.0195,-0.0892,
10:34:53:418,-0.0865,-0.0778,-0.0688,-0.0332,-0.0195,-0.0892,
10:34:53:448,-0.0865,-0.0778,-0.0688,-0.0332,-0.0195,-0.0892,
10:34:53:450,-0.0865,-0.0778,-0.0688,-0.0332,-0.0195,-0.0892,
10:34:53:451,-0.0865,-0.0778,-0.0688,-0.0332,-0.0195,-0.0892,
10:34:53:452,-0.0865,-0.0778,-0.0688,-0.0332,-0.0195,-0.0892,
10:34:53:492,-0.0865,-0.0778,-0.0688,0.0495,-0.0252,-0.1963,
10:34:53:494,-0.2501,-0.0973,-0.4201,0.0495,-0.0252,-0.1963,
10:34:53:536,-0.2501,-0.0973,-0.4201,-0.003,0.0143,-0.1161,
10:34:53:539,0.228,0.0176,0.3533,-0.003,0.0143,-0.1161,
10:34:53:543,0.228,0.0176,0.3533,-0.003,0.0143,-0.1161,
10:34:53:544,0.228,0.0176,0.3533,-0.003,0.0143,-0.1161,
10:34:53:547,0.228,0.0176,0.3533,-0.003,0.0143,-0.1161,
10:34:53:548,0.228,0.0176,0.3533,-0.003,0.0143,-0.1161,
10:34:53:549,0.228,0.0176,0.3533,-0.003,0.0143,-0.1161,
10:34:53:590,0.228,0.0176,0.3533,-0.08,0.0102,-0.1621,
10:34:53:594,-0.2426,-0.176,-0.0977,-0.08,0.0102,-0.1621,
10:34:53:607,-0.2426,-0.176,-0.0977,-0.08,0.0102,-0.1621,
10:34:53:611,-0.2426,-0.176,-0.0977,-0.08,0.0102,-0.1621,
10:34:53:613,-0.2426,-0.176,-0.0977,-0.08,0.0102,-0.1621,
10:34:53:647,-0.2426,-0.176,-0.0977,0.0043,-0.0403,-0.2224,
10:34:53:648,-0.0635,-0.0364,-0.1317,0.0043,-0.0403,-0.2224,
10:34:53:696,-0.0635,-0.0364,-0.1317,0.0043,-0.0403,-0.2224,
10:34:53:699,-0.0635,-0.0364,-0.1317,0.0043,-0.0403,-0.2224,
10:34:53:701,-0.0635,-0.0364,-0.1317,0.0043,-0.0403,-0.2224,
10:34:53:703,-0.0635,-0.0364,-0.1317,0.0043,-0.0403,-0.2224,
10:34:53:706,-0.0635,-0.0364,-0.1317,0.0043,-0.0403,-0.2224,
10:34:53:745,-0.0635,-0.0364,-0.1317,-0.0287,-0.0383,-0.1747,
10:34:53:749,0.0645,-0.0187,-0.0755,-0.0287,-0.0383,-0.1747,
10:34:53:781,0.0645,-0.0187,-0.0755,0.021,-0.0509,-0.1095,
10:34:53:784,0.0645,-0.0187,-0.0755,0.021,-0.0509,-0.1095,
10:34:53:785,0.0645,-0.0187,-0.0755,0.021,-0.0509,-0.1095,
10:34:53:787,0.0645,-0.0187,-0.0755,0.021,-0.0509,-0.1095,
10:34:53:788,0.0645,-0.0187,-0.0755,0.021,-0.0509,-0.1095,
10:34:53:790,0.0064,-0.0254,-0.0819,0.021,-0.0509,-0.1095,
10:34:53:823,0.0064,-0.0254,-0.0819,0.058,-0.0619,-0.0696,
10:34:53:826,0.0861,-0.009,-0.0535,0.058,-0.0619,-0.0696,
10:34:53:869,0.0861,-0.009,-0.0535,0.058,-0.0619,-0.0696,
10:34:53:871,0.0861,-0.009,-0.0535,0.058,-0.0619,-0.0696,
10:34:53:873,0.0861,-0.009,-0.0535,0.058,-0.0619,-0.0696,
10:34:53:874,0.0861,-0.009,-0.0535,0.058,-0.0619,-0.0696,
10:34:53:877,0.0861,-0.009,-0.0535,0.058,-0.0619,-0.0696,
10:34:53:920,0.0861,-0.009,-0.0535,0.0393,-0.0753,0.0766,
10:34:53:922,0.0871,0.0017,-0.0276,0.0393,-0.0753,0.0766,
10:34:53:957,0.0871,0.0017,-0.0276,0.0079,-0.1242,0.224,
10:34:53:961,0.2191,0.0192,-0.0221,0.0079,-0.1242,0.224,
10:34:53:962,0.2191,0.0192,-0.0221,0.0079,-0.1242,0.224,
10:34:53:964,0.2191,0.0192,-0.0221,0.0079,-0.1242,0.224,
10:34:53:966,0.2191,0.0192,-0.0221,0.0079,-0.1242,0.224,
10:34:53:967,0.2191,0.0192,-0.0221,0.0079,-0.1242,0.224,
10:34:53:998,0.2191,0.0192,-0.0221,-0.0727,-0.1348,0.3873,
10:34:54:001,0.2288,-0.0076,0.3288,-0.0727,-0.1348,0.3873,
10:34:54:044,0.2288,-0.0076,0.3288,-0.0727,-0.1348,0.3873,
10:34:54:046,0.2288,-0.0076,0.3288,-0.0727,-0.1348,0.3873,
10:34:54:047,0.2288,-0.0076,0.3288,-0.0727,-0.1348,0.3873,
10:34:54:049,0.2288,-0.0076,0.3288,-0.0727,-0.1348,0.3873,
10:34:54:050,0.2288,-0.0076,0.3288,-0.0727,-0.1348,0.3873,
10:34:54:095,0.2288,-0.0076,0.3288,-0.1912,-0.0818,0.5208,
10:34:54:097,-0.0361,-0.0999,0.0265,-0.1912,-0.0818,0.5208,
10:34:54:131,0.1705,-0.1045,0.1522,-0.1912,-0.0818,0.5208,
10:34:54:134,0.1705,-0.1045,0.1522,-0.229,0.0464,0.3771,
10:34:54:136,0.1705,-0.1045,0.1522,-0.229,0.0464,0.3771,
10:34:54:137,0.1705,-0.1045,0.1522,-0.229,0.0464,0.3771,
10:34:54:138,0.1705,-0.1045,0.1522,-0.229,0.0464,0.3771,
10:34:54:139,0.1705,-0.1045,0.1522,-0.229,0.0464,0.3771,
10:34:54:171,0.1705,-0.1045,0.1522,-0.2331,-0.0004,0.0794,
10:34:54:173,-0.3974,-0.0525,0.005,-0.2331,-0.0004,0.0794,
10:34:54:218,-0.3974,-0.0525,0.005,-0.2331,-0.0004,0.0794,
10:34:54:221,-0.3974,-0.0525,0.005,-0.2331,-0.0004,0.0794,
10:34:54:223,-0.3974,-0.0525,0.005,-0.2331,-0.0004,0.0794,
10:34:54:225,-0.3974,-0.0525,0.005,-0.2331,-0.0004,0.0794,
10:34:54:227,-0.3974,-0.0525,0.005,-0.2331,-0.0004,0.0794,
10:34:54:269,-0.3974,-0.0525,0.005,-0.3533,0.0265,-0.3071,
10:34:54:271,0.0833,-0.4413,0.0935,-0.3533,0.0265,-0.3071,
10:34:54:304,0.0833,-0.4413,0.0935,-0.5133,-0.0191,-0.8214,
10:34:54:307,-0.3725,-0.5359,0.3785,-0.5133,-0.0191,-0.8214,
10:34:54:310,-0.3725,-0.5359,0.3785,-0.5133,-0.0191,-0.8214,
10:34:54:312,-0.3725,-0.5359,0.3785,-0.5133,-0.0191,-0.8214,
10:34:54:313,-0.3725,-0.5359,0.3785,-0.5133,-0.0191,-0.8214,
10:34:54:314,-0.3725,-0.5359,0.3785,-0.5133,-0.0191,-0.8214,
10:34:54:348,-0.4061,-0.0498,-0.182,-0.5133,-0.0191,-0.8214,
10:34:54:350,-0.4061,-0.0498,-0.182,-0.4404,-0.1527,-1.0055,
10:34:54:378,-0.4061,-0.0498,-0.182,-0.4404,-0.1527,-1.0055,
10:34:54:380,-0.4061,-0.0498,-0.182,-0.4404,-0.1527,-1.0055,
10:34:54:381,-0.4061,-0.0498,-0.182,-0.4404,-0.1527,-1.0055,
10:34:54:382,-0.4061,-0.0498,-0.182,-0.4404,-0.1527,-1.0055,
10:34:54:424,-0.4061,-0.0498,-0.182,-0.4188,-0.0896,-0.9281,
10:34:54:426,-0.2006,-0.1656,0.3106,-0.4188,-0.0896,-0.9281,
10:34:54:465,-0.2506,-0.1283,-0.0619,-0.4188,-0.0896,-0.9281,
10:34:54:467,-0.2506,-0.1283,-0.0619,-0.3423,0.0033,-0.6585,
10:34:54:468,-0.2506,-0.1283,-0.0619,-0.3423,0.0033,-0.6585,
10:34:54:469,-0.2506,-0.1283,-0.0619,-0.3423,0.0033,-0.6585,
10:34:54:471,-0.2506,-0.1283,-0.0619,-0.3423,0.0033,-0.6585,
10:34:54:472,-0.2506,-0.1283,-0.0619,-0.3423,0.0033,-0.6585,
10:34:54:473,-0.2506,-0.1283,-0.0619,-0.3423,0.0033,-0.6585,
10:34:54:521,-0.2506,-0.1283,-0.0619,-0.2531,-0.0387,-0.665,
10:34:54:522,-0.4136,-0.2318,-0.3417,-0.2531,-0.0387,-0.665,
10:34:54:552,-0.4136,-0.2318,-0.3417,-0.2531,-0.0387,-0.665,
10:34:54:554,-0.4136,-0.2318,-0.3417,-0.2531,-0.0387,-0.665,
10:34:54:555,-0.4136,-0.2318,-0.3417,-0.2531,-0.0387,-0.665,
10:34:54:556,-0.4136,-0.2318,-0.3417,-0.2531,-0.0387,-0.665,
10:34:54:598,-0.4136,-0.2318,-0.3417,-0.2759,0.1747,-0.5559,
10:34:54:600,-0.3971,-0.0511,-0.7974,-0.2759,0.1747,-0.5559,
10:34:54:640,-0.3971,-0.0511,-0.7974,-0.2453,0.0188,-0.4357,
10:34:54:642,-0.3971,-0.0511,-0.7974,-0.2453,0.0188,-0.4357,
10:34:54:643,-0.3971,-0.0511,-0.7974,-0.2453,0.0188,-0.4357,
10:34:54:644,-0.3971,-0.0511,-0.7974,-0.2453,0.0188,-0.4357,
10:34:54:644,-0.3971,-0.0511,-0.7974,-0.2453,0.0188,-0.4357,
10:34:54:646,-0.3971,-0.0511,-0.7974,-0.2453,0.0188,-0.4357,
10:34:54:646,-0.2818,-0.78,1.3759,-0.2453,0.0188,-0.4357,
10:34:54:697,-0.2818,-0.78,1.3759,-0.2278,0.1275,-0.4919,
10:34:54:698,-0.6533,-0.9105,-0.5824,-0.2278,0.1275,-0.4919,
10:34:54:729,-0.6533,-0.9105,-0.5824,-0.2278,0.1275,-0.4919,
10:34:54:731,-0.6533,-0.9105,-0.5824,-0.2278,0.1275,-0.4919,
10:34:54:732,-0.6533,-0.9105,-0.5824,-0.2278,0.1275,-0.4919,
10:34:54:732,-0.6533,-0.9105,-0.5824,-0.2278,0.1275,-0.4919,
10:34:54:776,-0.6533,-0.9105,-0.5824,-0.0576,0.4129,-0.9697,
10:34:54:779,-1.8144,-2.5682,-1.5,-0.0576,0.4129,-0.9697,
10:34:54:815,-1.8144,-2.5682,-1.5,0.0531,0.834,-1.5548,
10:34:54:817,-1.8144,-2.5682,-1.5,0.0531,0.834,-1.5548,
10:34:54:818,-1.8144,-2.5682,-1.5,0.0531,0.834,-1.5548,
10:34:54:819,-1.8144,-2.5682,-1.5,0.0531,0.834,-1.5548,
10:34:54:820,-1.8144,-2.5682,-1.5,0.0531,0.834,-1.5548,
10:34:54:821,-1.8144,-2.5682,-1.5,0.0531,0.834,-1.5548,
10:34:54:822,-3.1705,-5.4815,-1.4226,0.0531,0.834,-1.5548,
10:34:54:871,-3.1705,-5.4815,-1.4226,-0.2625,1.4954,-2.2867,
10:34:54:873,-4.0398,-7.7594,-1.902,-0.2625,1.4954,-2.2867,
10:34:54:901,-4.0398,-7.7594,-1.902,-0.2625,1.4954,-2.2867,
10:34:54:903,-4.0398,-7.7594,-1.902,-0.2625,1.4954,-2.2867,
10:34:54:904,-4.0398,-7.7594,-1.902,-0.2625,1.4954,-2.2867,
10:34:54:905,-4.0398,-7.7594,-1.902,-0.2625,1.4954,-2.2867,
10:34:54:948,-13.2908,-12.9249,-2.8455,-0.2625,1.4954,-2.2867,
10:34:54:951,-13.2908,-12.9249,-2.8455,-0.5642,2.3632,-1.6208,
10:34:54:988,-13.2908,-12.9249,-2.8455,-0.7035,1.8045,-0.5844,
10:34:54:990,-3.3447,-0.149,0.5781,-0.7035,1.8045,-0.5844,
10:34:54:991,-3.3447,-0.149,0.5781,-0.7035,1.8045,-0.5844,
10:34:54:991,-3.3447,-0.149,0.5781,-0.7035,1.8045,-0.5844,
10:34:54:992,-3.3447,-0.149,0.5781,-0.7035,1.8045,-0.5844,
10:34:54:992,-3.3447,-0.149,0.5781,-0.7035,1.8045,-0.5844,
10:34:54:993,-3.3447,-0.149,0.5781,-0.7035,1.8045,-0.5844,
10:34:55:045,-3.3447,-0.149,0.5781,-0.9165,1.3708,1.1028,
10:34:55:047,-13.0329,2.2521,1.884,-0.9165,1.3708,1.1028,
10:34:55:075,-13.0329,2.2521,1.884,-0.9165,1.3708,1.1028,
10:34:55:077,-13.0329,2.2521,1.884,-0.9165,1.3708,1.1028,
10:34:55:079,-13.0329,2.2521,1.884,-0.9165,1.3708,1.1028,
10:34:55:081,-13.0329,2.2521,1.884,-0.9165,1.3708,1.1028,
10:34:55:123,-13.0329,2.2521,1.884,-1.0101,-0.8768,2.2915,
10:34:55:125,-6.232,2.2373,3.8936,-1.0101,-0.8768,2.2915,
10:34:55:151,-6.232,2.2373,3.8936,-1.0101,-0.8768,2.2915,
10:34:55:152,-6.232,2.2373,3.8936,-1.0101,-0.8768,2.2915,
10:34:55:154,-6.232,2.2373,3.8936,-1.0101,-0.8768,2.2915,
10:34:55:154,-6.232,2.2373,3.8936,-1.0101,-0.8768,2.2915,
10:34:55:202,-6.232,2.2373,3.8936,-0.6982,-0.935,3.6183,
10:34:55:203,-3.4996,-2.8159,-0.1802,-0.6982,-0.935,3.6183,
10:34:55:235,-3.4996,-2.8159,-0.1802,-0.6062,0.7054,4.9932,
10:34:55:237,-0.9754,-2.169,0.0542,-0.6062,0.7054,4.9932,
10:34:55:238,-0.9754,-2.169,0.0542,-0.6062,0.7054,4.9932,
10:34:55:239,-0.9754,-2.169,0.0542,-0.6062,0.7054,4.9932,
10:34:55:241,-0.9754,-2.169,0.0542,-0.6062,0.7054,4.9932,
10:34:55:243,-0.9754,-2.169,0.0542,-0.6062,0.7054,4.9932,
10:34:55:278,-0.9754,-2.169,0.0542,-0.7756,1.0332,5.5189,
10:34:55:280,2.0437,-6.7344,3.5057,-0.7756,1.0332,5.5189,
10:34:55:324,2.0437,-6.7344,3.5057,-0.7756,1.0332,5.5189,
10:34:55:326,2.0437,-6.7344,3.5057,-0.7756,1.0332,5.5189,
10:34:55:327,2.0437,-6.7344,3.5057,-0.7756,1.0332,5.5189,
10:34:55:328,2.0437,-6.7344,3.5057,-0.7756,1.0332,5.5189,
10:34:55:329,2.0437,-6.7344,3.5057,-0.7756,1.0332,5.5189,
10:34:55:375,2.0437,-6.7344,3.5057,-0.5019,-0.5701,4.7936,
10:34:55:376,21.7856,-8.1667,2.8917,-0.5019,-0.5701,4.7936,
10:34:55:411,21.7856,-8.1667,2.8917,-0.1167,-0.1991,1.6794,
10:34:55:413,21.7856,-8.1667,2.8917,-0.1167,-0.1991,1.6794,
10:34:55:414,21.7856,-8.1667,2.8917,-0.1167,-0.1991,1.6794,
10:34:55:415,21.7856,-8.1667,2.8917,-0.1167,-0.1991,1.6794,
10:34:55:417,21.7856,-8.1667,2.8917,-0.1167,-0.1991,1.6794,
10:34:55:418,22.2487,-8.4574,2.8506,-0.1167,-0.1991,1.6794,
10:34:55:453,22.2487,-8.4574,2.8506,0.0902,0.0078,-1.6925,
10:34:55:455,9.4223,-5.6398,-1.4956,0.0902,0.0078,-1.6925,
10:34:55:480,9.4223,-5.6398,-1.4956,0.0902,0.0078,-1.6925,
10:34:55:481,9.4223,-5.6398,-1.4956,0.0902,0.0078,-1.6925,
10:34:55:482,9.4223,-5.6398,-1.4956,0.0902,0.0078,-1.6925,
10:34:55:483,9.4223,-5.6398,-1.4956,0.0902,0.0078,-1.6925,
10:34:55:530,9.4223,-5.6398,-1.4956,0.1924,0.1145,-2.2419,
10:34:55:532,0.1252,-1.1248,2.0835,0.1924,0.1145,-2.2419,
10:34:55:567,0.1252,-1.1248,2.0835,0.1924,0.1145,-2.2419,
10:34:55:568,0.1252,-1.1248,2.0835,0.1924,0.1145,-2.2419,
10:34:55:569,0.1252,-1.1248,2.0835,0.1924,0.1145,-2.2419,
10:34:55:570,0.1252,-1.1248,2.0835,0.1924,0.1145,-2.2419,
10:34:55:617,0.1252,-1.1248,2.0835,-0.0947,0.6878,-1.9898,
10:34:55:619,1.5586,-0.2198,0.1247,-0.0947,0.6878,-1.9898,
10:34:55:653,1.5586,-0.2198,0.1247,0.1334,0.3466,-1.3455,
10:34:55:655,0.7567,-0.1542,0.0622,0.1334,0.3466,-1.3455,
10:34:55:658,0.7567,-0.1542,0.0622,0.1334,0.3466,-1.3455,
10:34:55:660,0.7567,-0.1542,0.0622,0.1334,0.3466,-1.3455,
10:34:55:661,0.7567,-0.1542,0.0622,0.1334,0.3466,-1.3455,
10:34:55:662,0.7567,-0.1542,0.0622,0.1334,0.3466,-1.3455,
10:34:55:664,0.7567,-0.1542,0.0622,0.1334,0.3466,-1.3455,
10:34:55:705,0.7567,-0.1542,0.0622,-0.0495,0.1963,-0.8446,
10:34:55:707,-0.0992,-0.0816,0.346,-0.0495,0.1963,-0.8446,
10:34:55:743,-0.0992,-0.0816,0.346,-0.0495,0.1963,-0.8446,
10:34:55:745,-0.0992,-0.0816,0.346,-0.0495,0.1963,-0.8446,
10:34:55:746,-0.0992,-0.0816,0.346,-0.0495,0.1963,-0.8446,
10:34:55:747,-0.0992,-0.0816,0.346,-0.0495,0.1963,-0.8446,
10:34:55:784,-0.0992,-0.0816,0.346,0.0299,0.2415,-0.4846,
10:34:55:786,-0.4007,-0.3177,-0.2789,0.0299,0.2415,-0.4846,
10:34:55:811,-0.8438,-0.343,-0.3185,0.0299,0.2415,-0.4846,
10:34:55:813,-0.8438,-0.343,-0.3185,0.0572,0.2623,-0.7607,
10:34:55:814,-0.8438,-0.343,-0.3185,0.0572,0.2623,-0.7607,
10:34:55:815,-0.8438,-0.343,-0.3185,0.0572,0.2623,-0.7607,
10:34:55:815,-0.8438,-0.343,-0.3185,0.0572,0.2623,-0.7607,
10:34:55:816,-0.8438,-0.343,-0.3185,0.0572,0.2623,-0.7607,
10:34:55:861,-1.3267,-0.5423,-0.6071,0.0572,0.2623,-0.7607,
10:34:55:864,-1.3267,-0.5423,-0.6071,0.0804,0.1768,-1.3036,
10:34:55:897,-1.3267,-0.5423,-0.6071,0.0804,0.1768,-1.3036,
10:34:55:899,-1.3267,-0.5423,-0.6071,0.0804,0.1768,-1.3036,
10:34:55:900,-1.3267,-0.5423,-0.6071,0.0804,0.1768,-1.3036,
10:34:55:901,-1.3267,-0.5423,-0.6071,0.0804,0.1768,-1.3036,
10:34:55:943,-1.3267,-0.5423,-0.6071,0.1159,0.4301,-1.0906,
10:34:55:944,-1.4693,-1.7474,0.4237,0.1159,0.4301,-1.0906,
10:34:55:985,-1.4693,-1.7474,0.4237,0.3069,0.6557,-1.6131,
10:34:55:986,-2.6966,-2.995,-1.7295,0.3069,0.6557,-1.6131,
10:34:55:987,-2.6966,-2.995,-1.7295,0.3069,0.6557,-1.6131,
10:34:55:988,-2.6966,-2.995,-1.7295,0.3069,0.6557,-1.6131,
10:34:55:990,-2.6966,-2.995,-1.7295,0.3069,0.6557,-1.6131,
10:34:55:992,-2.6966,-2.995,-1.7295,0.3069,0.6557,-1.6131,
10:34:55:993,-2.6966,-2.995,-1.7295,0.3069,0.6557,-1.6131,
10:34:56:035,-2.6966,-2.995,-1.7295,0.5838,0.8898,-2.4996,
10:34:56:037,-4.4409,-4.837,-1.3873,0.5838,0.8898,-2.4996,
10:34:56:071,-4.4409,-4.837,-1.3873,0.5838,0.8898,-2.4996,
10:34:56:073,-4.4409,-4.837,-1.3873,0.5838,0.8898,-2.4996,
10:34:56:074,-4.4409,-4.837,-1.3873,0.5838,0.8898,-2.4996,
10:34:56:076,-4.4409,-4.837,-1.3873,0.5838,0.8898,-2.4996,
10:34:56:113,-4.4409,-4.837,-1.3873,0.3569,1.6245,-3.3015,
10:34:56:115,-8.0418,-10.2132,-5.9922,0.3569,1.6245,-3.3015,
10:34:56:141,-8.0418,-10.2132,-5.9922,0.3569,1.6245,-3.3015,
10:34:56:144,-8.0418,-10.2132,-5.9922,0.3569,1.6245,-3.3015,
10:34:56:146,-8.0418,-10.2132,-5.9922,0.3569,1.6245,-3.3015,
10:34:56:148,-8.0418,-10.2132,-5.9922,0.3569,1.6245,-3.3015,
10:34:56:188,-8.0418,-10.2132,-5.9922,-0.2229,3.0006,-1.8802,
10:34:56:190,-18.2703,-14.7988,-6.4442,-0.2229,3.0006,-1.8802,
10:34:56:193,-18.2703,-14.7988,-6.4442,-0.2229,3.0006,-1.8802,
10:34:56:194,-18.2703,-14.7988,-6.4442,-0.2229,3.0006,-1.8802,
10:34:56:232,-18.2703,-14.7988,-6.4442,-0.9882,1.5944,-0.5363,
10:34:56:234,-2.1679,2.1655,-1.2059,-0.9882,1.5944,-0.5363,
10:34:56:276,-2.1679,2.1655,-1.2059,-1.6935,-0.2089,1.7857,
10:34:56:280,-2.1679,2.1655,-1.2059,-1.6935,-0.2089,1.7857,
10:34:56:281,-2.1679,2.1655,-1.2059,-1.6935,-0.2089,1.7857,
10:34:56:282,-2.1679,2.1655,-1.2059,-1.6935,-0.2089,1.7857,
10:34:56:283,-2.1679,2.1655,-1.2059,-1.6935,-0.2089,1.7857,
10:34:56:284,-2.1679,2.1655,-1.2059,-1.6935,-0.2089,1.7857,
10:34:56:285,-13.7855,4.6685,0.9251,-1.6935,-0.2089,1.7857,
10:34:56:328,-13.7855,4.6685,0.9251,-1.6601,-0.9932,3.8,
10:34:56:331,-5.3265,3.0438,3.1441,-1.6601,-0.9932,3.8,
10:34:56:361,-5.3265,3.0438,3.1441,-1.6601,-0.9932,3.8,
10:34:56:362,-5.3265,3.0438,3.1441,-1.6601,-0.9932,3.8,
10:34:56:364,-5.3265,3.0438,3.1441,-1.6601,-0.9932,3.8,
10:34:56:365,-5.3265,3.0438,3.1441,-1.6601,-0.9932,3.8,
10:34:56:404,-5.3265,3.0438,3.1441,-1.2325,-0.6161,5.1259,
10:34:56:406,-2.5735,-0.3278,1.6175,-1.2325,-0.6161,5.1259,
10:34:56:450,-2.5735,-0.3278,1.6175,-1.0606,-0.5033,6.0491,
10:34:56:451,2.6876,-6.1302,2.0919,-1.0606,-0.5033,6.0491,
10:34:56:453,2.6876,-6.1302,2.0919,-1.0606,-0.5033,6.0491,
10:34:56:454,2.6876,-6.1302,2.0919,-1.0606,-0.5033,6.0491,
10:34:56:455,2.6876,-6.1302,2.0919,-1.0606,-0.5033,6.0491,
10:34:56:456,2.6876,-6.1302,2.0919,-1.0606,-0.5033,6.0491,
10:34:56:457,2.6876,-6.1302,2.0919,-1.0606,-0.5033,6.0491,
10:34:56:501,2.6876,-6.1302,2.0919,-0.9507,-0.955,5.5706,
10:34:56:503,13.2091,-15.6502,-0.2123,-0.9507,-0.955,5.5706,
10:34:56:536,13.2091,-15.6502,-0.2123,-0.9507,-0.955,5.5706,
10:34:56:538,13.2091,-15.6502,-0.2123,-0.9507,-0.955,5.5706,
10:34:56:539,13.2091,-15.6502,-0.2123,-0.9507,-0.955,5.5706,
10:34:56:541,13.2091,-15.6502,-0.2123,-0.9507,-0.955,5.5706,
10:34:56:580,13.2091,-15.6502,-0.2123,-0.4966,-0.6393,0.5408,
10:34:56:582,25.908,-10.6563,3.625,-0.4966,-0.6393,0.5408,
10:34:56:623,25.908,-10.6563,3.625,-0.4066,-2.0781,-3.0588,
10:34:56:626,25.908,-10.6563,3.625,-0.4066,-2.0781,-3.0588,
10:34:56:627,25.908,-10.6563,3.625,-0.4066,-2.0781,-3.0588,
10:34:56:628,25.908,-10.6563,3.625,-0.4066,-2.0781,-3.0588,
10:34:56:630,25.908,-10.6563,3.625,-0.4066,-2.0781,-3.0588,
10:34:56:631,25.908,-10.6563,3.625,-0.4066,-2.0781,-3.0588,
10:34:56:632,0.5151,-6.2628,3.6236,-0.4066,-2.0781,-3.0588,
10:34:56:677,0.5151,-6.2628,3.6236,0.1529,0.4044,-3.1236,
10:34:56:678,4.3944,-3.5935,0.949,0.1529,0.4044,-3.1236,
10:34:56:694,4.3944,-3.5935,0.949,0.1529,0.4044,-3.1236,
10:34:56:695,4.3944,-3.5935,0.949,0.1529,0.4044,-3.1236,
10:34:56:697,4.3944,-3.5935,0.949,0.1529,0.4044,-3.1236,
10:34:56:735,4.3944,-3.5935,0.949,0.1236,0.6536,-2.1356,
10:34:56:736,4.1361,-1.8125,1.6499,0.1236,0.6536,-2.1356,
10:34:56:778,4.1361,-1.8125,1.6499,0.1236,0.6536,-2.1356,
10:34:56:779,4.1361,-1.8125,1.6499,0.1236,0.6536,-2.1356,
10:34:56:781,4.1361,-1.8125,1.6499,0.1236,0.6536,-2.1356,
10:34:56:782,4.1361,-1.8125,1.6499,0.1236,0.6536,-2.1356,
10:34:56:783,4.1361,-1.8125,1.6499,0.1236,0.6536,-2.1356,
10:34:56:831,4.1361,-1.8125,1.6499,0.0951,0.0289,-1.662,
10:34:56:832,0.0321,-0.1609,-0.254,0.0951,0.0289,-1.662,
10:34:56:865,0.0321,-0.1609,-0.254,0.2128,0.2729,-0.8972,
10:34:56:867,0.0321,-0.1609,-0.254,0.2128,0.2729,-0.8972,
10:34:56:868,0.0321,-0.1609,-0.254,0.2128,0.2729,-0.8972,
10:34:56:869,0.0321,-0.1609,-0.254,0.2128,0.2729,-0.8972,
10:34:56:870,0.0321,-0.1609,-0.254,0.2128,0.2729,-0.8972,
10:34:56:871,-0.4914,-0.1697,-0.3785,0.2128,0.2729,-0.8972,
10:34:56:910,-0.4914,-0.1697,-0.3785,0.1989,0.3319,-0.7062,
10:34:56:911,-0.8873,-0.2672,-0.7935,0.1989,0.3319,-0.7062,
10:34:56:953,-0.8873,-0.2672,-0.7935,0.1989,0.3319,-0.7062,
10:34:56:954,-0.8873,-0.2672,-0.7935,0.1989,0.3319,-0.7062,
10:34:56:956,-0.8873,-0.2672,-0.7935,0.1989,0.3319,-0.7062,
10:34:56:957,-0.8873,-0.2672,-0.7935,0.1989,0.3319,-0.7062,
10:34:56:957,-0.8873,-0.2672,-0.7935,0.1989,0.3319,-0.7062,
10:34:57:006,-0.8873,-0.2672,-0.7935,0.2393,0.303,-0.7892,
10:34:57:010,-0.5446,-0.6596,0.0149,0.2393,0.303,-0.7892,
10:34:57:021,-0.5446,-0.6596,0.0149,0.2393,0.303,-0.7892,
10:34:57:022,-0.5446,-0.6596,0.0149,0.2393,0.303,-0.7892,
10:34:57:023,-0.5446,-0.6596,0.0149,0.2393,0.303,-0.7892,
10:34:57:064,-1.1596,-2.1702,-0.042,0.2393,0.303,-0.7892,
10:34:57:066,-1.1596,-2.1702,-0.042,0.2144,0.2085,-1.1749,
10:34:57:108,-1.1596,-2.1702,-0.042,0.3423,0.3042,-1.7035,
10:34:57:110,-1.1596,-2.1702,-0.042,0.3423,0.3042,-1.7035,
10:34:57:112,-1.1596,-2.1702,-0.042,0.3423,0.3042,-1.7035,
10:34:57:113,-1.1596,-2.1702,-0.042,0.3423,0.3042,-1.7035,
10:34:57:114,-1.1596,-2.1702,-0.042,0.3423,0.3042,-1.7035,
10:34:57:115,-1.1596,-2.1702,-0.042,0.3423,0.3042,-1.7035,
10:34:57:117,-2.0577,-2.3986,-0.2728,0.3423,0.3042,-1.7035,
10:34:57:162,-2.0577,-2.3986,-0.2728,0.5858,0.6439,-2.338,
10:34:57:164,-4.1207,-4.1998,-2.1228,0.5858,0.6439,-2.338,
10:34:57:196,-4.1207,-4.1998,-2.1228,0.5858,0.6439,-2.338,
10:34:57:197,-4.1207,-4.1998,-2.1228,0.5858,0.6439,-2.338,
10:34:57:198,-4.1207,-4.1998,-2.1228,0.5858,0.6439,-2.338,
10:34:57:199,-4.1207,-4.1998,-2.1228,0.5858,0.6439,-2.338,
10:34:57:239,-4.1207,-4.1998,-2.1228,0.5479,1.3121,-3.0014,
10:34:57:242,-13.0982,-14.7756,-6.1911,0.5479,1.3121,-3.0014,
10:34:57:281,-13.0982,-14.7756,-6.1911,0.0519,1.8534,-2.3987,
10:34:57:283,-13.9866,-15.4444,-6.8278,0.0519,1.8534,-2.3987,
10:34:57:285,-13.9866,-15.4444,-6.8278,0.0519,1.8534,-2.3987,
10:34:57:286,-13.9866,-15.4444,-6.8278,0.0519,1.8534,-2.3987,
10:34:57:287,-13.9866,-15.4444,-6.8278,0.0519,1.8534,-2.3987,
10:34:57:289,-13.9866,-15.4444,-6.8278,0.0519,1.8534,-2.3987,
10:34:57:290,-13.9866,-15.4444,-6.8278,0.0519,1.8534,-2.3987,
10:34:57:336,-13.9866,-15.4444,-6.8278,-0.4502,0.9155,-0.5082,
10:34:57:338,-2.6772,2.1982,-2.5498,-0.4502,0.9155,-0.5082,
10:34:57:355,-2.6772,2.1982,-2.5498,-0.4502,0.9155,-0.5082,
10:34:57:357,-2.6772,2.1982,-2.5498,-0.4502,0.9155,-0.5082,
10:34:57:358,-2.6772,2.1982,-2.5498,-0.4502,0.9155,-0.5082,
10:34:57:394,-2.6772,2.1982,-2.5498,-0.9287,0.0371,1.8224,
10:34:57:396,-14.1687,4.0803,0.6806,-0.9287,0.0371,1.8224,
10:34:57:439,-14.1687,4.0803,0.6806,-1.3253,-0.7008,3.5112,
10:34:57:441,-14.1687,4.0803,0.6806,-1.3253,-0.7008,3.5112,
10:34:57:443,-14.1687,4.0803,0.6806,-1.3253,-0.7008,3.5112,
10:34:57:444,-14.1687,4.0803,0.6806,-1.3253,-0.7008,3.5112,
10:34:57:446,-14.1687,4.0803,0.6806,-1.3253,-0.7008,3.5112,
10:34:57:447,-14.1687,4.0803,0.6806,-1.3253,-0.7008,3.5112,
10:34:57:449,-4.986,3.3956,0.7797,-1.3253,-0.7008,3.5112,
10:34:57:491,-4.986,3.3956,0.7797,-1.2728,0.1092,4.9032,
10:34:57:493,-3.4786,0.0923,1.5978,-1.2728,0.1092,4.9032,
10:34:57:526,-3.4786,0.0923,1.5978,-1.2728,0.1092,4.9032,
10:34:57:528,-3.4786,0.0923,1.5978,-1.2728,0.1092,4.9032,
10:34:57:529,-3.4786,0.0923,1.5978,-1.2728,0.1092,4.9032,
10:34:57:530,-3.4786,0.0923,1.5978,-1.2728,0.1092,4.9032,
10:34:57:569,-3.4786,0.0923,1.5978,-1.2553,0.3877,5.9005,
10:34:57:571,-0.2714,-5.5852,2.7325,-1.2553,0.3877,5.9005,
10:34:57:614,-0.2714,-5.5852,2.7325,-1.191,-1.1398,5.8598,
10:34:57:616,-0.2714,-5.5852,2.7325,-1.191,-1.1398,5.8598,
10:34:57:617,-0.2714,-5.5852,2.7325,-1.191,-1.1398,5.8598,
10:34:57:618,-0.2714,-5.5852,2.7325,-1.191,-1.1398,5.8598,
10:34:57:619,-0.2714,-5.5852,2.7325,-1.191,-1.1398,5.8598,
10:34:57:620,-0.2714,-5.5852,2.7325,-1.191,-1.1398,5.8598,
10:34:57:621,9.3095,-14.2312,1.8797,-1.191,-1.1398,5.8598,
10:34:57:667,26.9481,-12.9815,1.8187,-1.191,-1.1398,5.8598,
10:34:57:670,26.9481,-12.9815,1.8187,-0.6123,-1.1529,2.0081,
10:34:57:683,26.9481,-12.9815,1.8187,-0.6123,-1.1529,2.0081,
10:34:57:685,26.9481,-12.9815,1.8187,-0.6123,-1.1529,2.0081,
10:34:57:686,26.9481,-12.9815,1.8187,-0.6123,-1.1529,2.0081,
10:34:57:725,26.9481,-12.9815,1.8187,-0.6725,-2.4385,-2.5672,
10:34:57:727,1.6417,-7.5242,0.5753,-0.6725,-2.4385,-2.5672,
10:34:57:770,1.6417,-7.5242,0.5753,-0.6725,-2.4385,-2.5672,
10:34:57:772,1.6417,-7.5242,0.5753,-0.6725,-2.4385,-2.5672,
10:34:57:773,1.6417,-7.5242,0.5753,-0.6725,-2.4385,-2.5672,
10:34:57:774,1.6417,-7.5242,0.5753,-0.6725,-2.4385,-2.5672,
10:34:57:775,1.6417,-7.5242,0.5753,-0.6725,-2.4385,-2.5672,
10:34:57:822,1.6417,-7.5242,0.5753,0.0686,-0.2867,-3.2164,
10:34:57:824,8.7108,-2.9718,-0.3698,0.0686,-0.2867,-3.2164,
10:34:57:857,8.7108,-2.9718,-0.3698,-0.1965,0.5547,-2.6344,
10:34:57:859,8.7108,-2.9718,-0.3698,-0.1965,0.5547,-2.6344,
10:34:57:861,8.7108,-2.9718,-0.3698,-0.1965,0.5547,-2.6344,
10:34:57:862,8.7108,-2.9718,-0.3698,-0.1965,0.5547,-2.6344,
10:34:57:863,8.7108,-2.9718,-0.3698,-0.1965,0.5547,-2.6344,
10:34:57:864,7.0782,-2.706,-0.2138,-0.1965,0.5547,-2.6344,
10:34:57:900,7.0782,-2.706,-0.2138,0.0161,0.0004,-1.7581,
10:34:57:901,0.077,-0.3147,-0.098,0.0161,0.0004,-1.7581,
10:34:57:945,0.077,-0.3147,-0.098,0.0161,0.0004,-1.7581,
10:34:57:947,0.077,-0.3147,-0.098,0.0161,0.0004,-1.7581,
10:34:57:948,0.077,-0.3147,-0.098,0.0161,0.0004,-1.7581,
10:34:57:950,0.077,-0.3147,-0.098,0.0161,0.0004,-1.7581,
10:34:57:951,0.077,-0.3147,-0.098,0.0161,0.0004,-1.7581,
10:34:57:996,0.077,-0.3147,-0.098,0.1448,0.2957,-0.8133,
10:34:57:998,-0.7362,-0.2601,-0.8958,0.1448,0.2957,-0.8133,
10:34:58:015,-0.7362,-0.2601,-0.8958,0.1448,0.2957,-0.8133,
10:34:58:017,-0.7362,-0.2601,-0.8958,0.1448,0.2957,-0.8133,
10:34:58:019,-0.7362,-0.2601,-0.8958,0.1448,0.2957,-0.8133,
10:34:58:054,-0.7362,-0.2601,-0.8958,0.2148,0.4089,-0.5775,
10:34:58:057,-0.8533,-0.8035,0.7098,0.2148,0.4089,-0.5775,
10:34:58:100,-0.8533,-0.8035,0.7098,0.2535,0.3889,-0.7876,
10:34:58:102,-1.3235,-0.8112,0.532,0.2535,0.3889,-0.7876,
10:34:58:104,-1.3235,-0.8112,0.532,0.2535,0.3889,-0.7876,
10:34:58:104,-1.3235,-0.8112,0.532,0.2535,0.3889,-0.7876,
10:34:58:105,-1.3235,-0.8112,0.532,0.2535,0.3889,-0.7876,
10:34:58:106,-1.3235,-0.8112,0.532,0.2535,0.3889,-0.7876,
10:34:58:107,-1.3235,-0.8112,0.532,0.2535,0.3889,-0.7876,
10:34:58:151,-1.3235,-0.8112,0.532,0.2108,0.2655,-1.1562,
10:34:58:154,-0.8004,-0.2394,0.0367,0.2108,0.2655,-1.1562,
10:34:58:185,-0.8004,-0.2394,0.0367,0.2108,0.2655,-1.1562,
10:34:58:187,-0.8004,-0.2394,0.0367,0.2108,0.2655,-1.1562,
10:34:58:188,-0.8004,-0.2394,0.0367,0.2108,0.2655,-1.1562,
10:34:58:189,-0.8004,-0.2394,0.0367,0.2108,0.2655,-1.1562,
10:34:58:230,-0.8004,-0.2394,0.0367,0.2894,0.3067,-1.3728,
10:34:58:231,-2.2377,-3.2453,-0.5166,0.2894,0.3067,-1.3728,
10:34:58:273,-2.2377,-3.2453,-0.5166,0.5667,0.4162,-1.9719,
10:34:58:275,-2.2377,-3.2453,-0.5166,0.5667,0.4162,-1.9719,
10:34:58:276,-2.2377,-3.2453,-0.5166,0.5667,0.4162,-1.9719,
10:34:58:277,-2.2377,-3.2453,-0.5166,0.5667,0.4162,-1.9719,
10:34:58:278,-2.2377,-3.2453,-0.5166,0.5667,0.4162,-1.9719,
10:34:58:280,-2.2377,-3.2453,-0.5166,0.5667,0.4162,-1.9719,
10:34:58:281,-3.2737,-3.5199,-0.8854,0.5667,0.4162,-1.9719,
10:34:58:327,-3.2737,-3.5199,-0.8854,0.8314,0.8854,-2.8377,
10:34:58:328,-6.0793,-6.4752,-4.3192,0.8314,0.8854,-2.8377,
10:34:58:346,-6.0793,-6.4752,-4.3192,0.8314,0.8854,-2.8377,
10:34:58:347,-6.0793,-6.4752,-4.3192,0.8314,0.8854,-2.8377,
10:34:58:348,-6.0793,-6.4752,-4.3192,0.8314,0.8854,-2.8377,
10:34:58:385,-6.0793,-6.4752,-4.3192,0.1794,1.9804,-3.3471,
10:34:58:386,-10.909,-15.2908,-8.2709,0.1794,1.9804,-3.3471,
10:34:58:430,-10.909,-15.2908,-8.2709,-0.1488,1.809,-1.126,
10:34:58:432,-11.2982,-3.9712,-2.3332,-0.1488,1.809,-1.126,
10:34:58:434,-11.2982,-3.9712,-2.3332,-0.1488,1.809,-1.126,
10:34:58:435,-11.2982,-3.9712,-2.3332,-0.1488,1.809,-1.126,
10:34:58:436,-11.2982,-3.9712,-2.3332,-0.1488,1.809,-1.126,
10:34:58:438,-11.2982,-3.9712,-2.3332,-0.1488,1.809,-1.126,
10:34:58:439,-11.2982,-3.9712,-2.3332,-0.1488,1.809,-1.126,
10:34:58:482,-11.2982,-3.9712,-2.3332,-0.8183,-0.4088,0.6459,
10:34:58:484,-10.5854,2.7254,-1.0934,-0.8183,-0.4088,0.6459,
10:34:58:519,-10.5854,2.7254,-1.0934,-0.8183,-0.4088,0.6459,
10:34:58:521,-10.5854,2.7254,-1.0934,-0.8183,-0.4088,0.6459,
10:34:58:523,-10.5854,2.7254,-1.0934,-0.8183,-0.4088,0.6459,
10:34:58:524,-10.5854,2.7254,-1.0934,-0.8183,-0.4088,0.6459,
10:34:58:560,-10.5854,2.7254,-1.0934,-1.1743,-1.0511,2.3522,
10:34:58:562,-6.8729,4.6309,-0.4292,-1.1743,-1.0511,2.3522,
10:34:58:605,-6.8729,4.6309,-0.4292,-1.1502,-0.022,4.1974,
10:34:58:607,-6.8729,4.6309,-0.4292,-1.1502,-0.022,4.1974,
10:34:58:608,-6.8729,4.6309,-0.4292,-1.1502,-0.022,4.1974,
10:34:58:610,-6.8729,4.6309,-0.4292,-1.1502,-0.022,4.1974,
10:34:58:611,-6.8729,4.6309,-0.4292,-1.1502,-0.022,4.1974,
10:34:58:612,-6.8729,4.6309,-0.4292,-1.1502,-0.022,4.1974,
10:34:58:613,-3.8671,1.76,0.7661,-1.1502,-0.022,4.1974,
10:34:58:656,-3.8671,1.76,0.7661,-1.4296,0.8817,5.5596,
10:34:58:658,-1.7654,-1.7233,0.3467,-1.4296,0.8817,5.5596,
10:34:58:674,-1.7654,-1.7233,0.3467,-1.4296,0.8817,5.5596,
10:34:58:676,-1.7654,-1.7233,0.3467,-1.4296,0.8817,5.5596,
10:34:58:677,-1.7654,-1.7233,0.3467,-1.4296,0.8817,5.5596,
10:34:58:715,-1.7654,-1.7233,0.3467,-2.0482,-0.9574,5.8476,
10:34:58:716,3.8901,-9.5541,3.747,-2.0482,-0.9574,5.8476,
10:34:58:763,3.8901,-9.5541,3.747,-2.0482,-0.9574,5.8476,
10:34:58:765,3.8901,-9.5541,3.747,-2.0482,-0.9574,5.8476,
10:34:58:766,3.8901,-9.5541,3.747,-2.0482,-0.9574,5.8476,
10:34:58:767,3.8901,-9.5541,3.747,-2.0482,-0.9574,5.8476,
10:34:58:768,3.8901,-9.5541,3.747,-2.0482,-0.9574,5.8476,
10:34:58:812,3.8901,-9.5541,3.747,-1.0122,-2.4491,4.2817,
10:34:58:813,18.0149,-11.4666,2.5728,-1.0122,-2.4491,4.2817,
10:34:58:848,18.0149,-11.4666,2.5728,-0.7809,-2.4414,-1.4074,
10:34:58:850,17.5294,-11.0076,2.1541,-0.7809,-2.4414,-1.4074,
10:34:58:851,17.5294,-11.0076,2.1541,-0.7809,-2.4414,-1.4074,
10:34:58:852,17.5294,-11.0076,2.1541,-0.7809,-2.4414,-1.4074,
10:34:58:853,17.5294,-11.0076,2.1541,-0.7809,-2.4414,-1.4074,
10:34:58:854,17.5294,-11.0076,2.1541,-0.7809,-2.4414,-1.4074,
10:34:58:890,17.5294,-11.0076,2.1541,-0.2425,-1.396,-3.4078,
10:34:58:892,3.2042,-2.0983,3.3907,-0.2425,-1.396,-3.4078,
10:34:58:935,3.2042,-2.0983,3.3907,-0.2425,-1.396,-3.4078,
10:34:58:937,3.2042,-2.0983,3.3907,-0.2425,-1.396,-3.4078,
10:34:58:938,3.2042,-2.0983,3.3907,-0.2425,-1.396,-3.4078,
10:34:58:939,3.2042,-2.0983,3.3907,-0.2425,-1.396,-3.4078,
10:34:58:940,3.2042,-2.0983,3.3907,-0.2425,-1.396,-3.4078,
10:34:58:987,1.9914,-0.6817,0.775,-0.2425,-1.396,-3.4078,
10:34:58:989,1.9914,-0.6817,0.775,-0.1403,0.1613,-3.102,
10:34:59:008,1.9914,-0.6817,0.775,-0.1403,0.1613,-3.102,
10:34:59:010,1.9914,-0.6817,0.775,-0.1403,0.1613,-3.102,
10:34:59:011,1.9914,-0.6817,0.775,-0.1403,0.1613,-3.102,
10:34:59:045,1.9914,-0.6817,0.775,-0.1382,0.4671,-1.7308,
10:34:59:047,1.0617,-0.0067,-0.1364,-0.1382,0.4671,-1.7308,
10:34:59:092,1.0617,-0.0067,-0.1364,-0.0047,0.1185,-1.2352,
10:34:59:094,0.3642,-0.0128,-0.1311,-0.0047,0.1185,-1.2352,
10:34:59:095,0.3642,-0.0128,-0.1311,-0.0047,0.1185,-1.2352,
10:34:59:096,0.3642,-0.0128,-0.1311,-0.0047,0.1185,-1.2352,
10:34:59:097,0.3642,-0.0128,-0.1311,-0.0047,0.1185,-1.2352,
10:34:59:098,0.3642,-0.0128,-0.1311,-0.0047,0.1185,-1.2352,
10:34:59:099,0.3642,-0.0128,-0.1311,-0.0047,0.1185,-1.2352,
10:34:59:142,0.3642,-0.0128,-0.1311,0.0772,0.2965,-0.6842,
10:34:59:144,-0.5122,-0.3049,-0.0601,0.0772,0.2965,-0.6842,
10:34:59:179,-0.5122,-0.3049,-0.0601,0.0772,0.2965,-0.6842,
10:34:59:180,-0.5122,-0.3049,-0.0601,0.0772,0.2965,-0.6842,
10:34:59:182,-0.5122,-0.3049,-0.0601,0.0772,0.2965,-0.6842,
10:34:59:184,-0.5122,-0.3049,-0.0601,0.0772,0.2965,-0.6842,
10:34:59:220,-0.5122,-0.3049,-0.0601,0.0971,0.3421,-0.6186,
10:34:59:221,-0.7045,-0.8011,0.0679,0.0971,0.3421,-0.6186,
10:34:59:251,-0.7045,-0.8011,0.0679,0.1537,0.3058,-0.9057,
10:34:59:254,-1.2212,-0.8416,-0.0407,0.1537,0.3058,-0.9057,
10:34:59:255,-1.2212,-0.8416,-0.0407,0.1537,0.3058,-0.9057,
10:34:59:255,-1.2212,-0.8416,-0.0407,0.1537,0.3058,-0.9057,
10:34:59:256,-1.2212,-0.8416,-0.0407,0.1537,0.3058,-0.9057,
10:34:59:257,-1.2212,-0.8416,-0.0407,0.1537,0.3058,-0.9057,
10:34:59:298,-1.2212,-0.8416,-0.0407,0.2173,0.3099,-1.17,
10:34:59:299,-1.4925,-1.3624,0.1373,0.2173,0.3099,-1.17,
10:34:59:339,-1.4925,-1.3624,0.1373,0.2173,0.3099,-1.17,
10:34:59:340,-1.4925,-1.3624,0.1373,0.2173,0.3099,-1.17,
10:34:59:341,-1.4925,-1.3624,0.1373,0.2173,0.3099,-1.17,
10:34:59:342,-1.4925,-1.3624,0.1373,0.2173,0.3099,-1.17,
10:34:59:343,-1.4925,-1.3624,0.1373,0.2173,0.3099,-1.17,
10:34:59:395,-1.4925,-1.3624,0.1373,0.416,0.3164,-1.8969,
10:34:59:397,-3.3102,-4.4497,-2.516,0.416,0.3164,-1.8969,
10:34:59:427,-3.3102,-4.4497,-2.516,0.6945,0.5958,-2.6336,
10:34:59:428,-4.641,-4.9134,-2.9618,0.6945,0.5958,-2.6336,
10:34:59:430,-4.641,-4.9134,-2.9618,0.6945,0.5958,-2.6336,
10:34:59:431,-4.641,-4.9134,-2.9618,0.6945,0.5958,-2.6336,
10:34:59:431,-4.641,-4.9134,-2.9618,0.6945,0.5958,-2.6336,
10:34:59:432,-4.641,-4.9134,-2.9618,0.6945,0.5958,-2.6336,
10:34:59:473,-4.641,-4.9134,-2.9618,0.53,1.4539,-3.3483,
10:34:59:475,-8.5047,-11.8563,-6.2803,0.53,1.4539,-3.3483,
10:34:59:503,-8.5047,-11.8563,-6.2803,0.53,1.4539,-3.3483,
10:34:59:505,-8.5047,-11.8563,-6.2803,0.53,1.4539,-3.3483,
10:34:59:506,-8.5047,-11.8563,-6.2803,0.53,1.4539,-3.3483,
10:34:59:507,-8.5047,-11.8563,-6.2803,0.53,1.4539,-3.3483,
10:34:59:550,-8.5047,-11.8563,-6.2803,0.0955,1.9279,-1.9238,
10:34:59:552,-19.1063,-14.0809,-5.7865,0.0955,1.9279,-1.9238,
10:34:59:590,-19.1063,-14.0809,-5.7865,-0.6025,0.9407,-0.5978,
10:34:59:596,-19.1063,-14.0809,-5.7865,-0.6025,0.9407,-0.5978,
10:34:59:597,-19.1063,-14.0809,-5.7865,-0.6025,0.9407,-0.5978,
10:34:59:599,-19.1063,-14.0809,-5.7865,-0.6025,0.9407,-0.5978,
10:34:59:601,-19.1063,-14.0809,-5.7865,-0.6025,0.9407,-0.5978,
10:34:59:603,-19.1063,-14.0809,-5.7865,-0.6025,0.9407,-0.5978,
10:34:59:604,-1.4778,3.405,-1.4404,-0.6025,0.9407,-0.5978,
10:34:59:647,-1.4778,3.405,-1.4404,-1.0944,-0.7485,1.6697,
10:34:59:648,-12.2029,4.923,0.6254,-1.0944,-0.7485,1.6697,
10:34:59:667,-12.2029,4.923,0.6254,-1.0944,-0.7485,1.6697,
10:34:59:668,-12.2029,4.923,0.6254,-1.0944,-0.7485,1.6697,
10:34:59:670,-12.2029,4.923,0.6254,-1.0944,-0.7485,1.6697,
10:34:59:671,-12.2029,4.923,0.6254,-1.0944,-0.7485,1.6697,
10:34:59:725,-12.2029,4.923,0.6254,-1.0944,-0.7485,1.6697,
10:34:59:727,-12.2029,4.923,0.6254,-1.0944,-0.7485,1.6697,
10:34:59:728,-12.2029,4.923,0.6254,-1.0944,-0.7485,1.6697,
10:34:59:729,-12.2029,4.923,0.6254,-1.1254,-1.1142,3.6481,
10:34:59:731,-4.6253,3.4862,1.7813,-1.1254,-1.1142,3.6481,
10:34:59:783,-4.6253,3.4862,1.7813,-1.1254,-1.1142,3.6481,
10:34:59:784,-4.6253,3.4862,1.7813,-1.1254,-1.1142,3.6481,
10:34:59:785,-4.6253,3.4862,1.7813,-1.1254,-1.1142,3.6481,
10:34:59:786,-4.6253,3.4862,1.7813,-1.0505,-0.3665,5.1117,
10:34:59:787,-2.8021,0.1066,0.4136,-1.0505,-0.3665,5.1117,
10:34:59:840,-2.8021,0.1066,0.4136,-1.0505,-0.3665,5.1117,
10:34:59:842,-2.8021,0.1066,0.4136,-1.0505,-0.3665,5.1117,
10:34:59:844,-2.8021,0.1066,0.4136,-1.0505,-0.3665,5.1117,
10:34:59:847,1.7178,-6.4089,1.5834,-1.0505,-0.3665,5.1117,
10:34:59:849,1.7178,-6.4089,1.5834,-1.2467,-0.1405,6.2088,
10:34:59:900,1.7178,-6.4089,1.5834,-1.2467,-0.1405,6.2088,
10:34:59:902,1.7178,-6.4089,1.5834,-1.2467,-0.1405,6.2088,
10:34:59:904,1.7178,-6.4089,1.5834,-1.2467,-0.1405,6.2088,
10:34:59:905,1.7178,-6.4089,1.5834,-1.0423,-1.3145,5.7311,
10:34:59:907,14.0772,-16.4946,2.0737,-1.0423,-1.3145,5.7311,
10:34:59:957,14.0772,-16.4946,2.0737,-1.0423,-1.3145,5.7311,
10:34:59:959,14.0772,-16.4946,2.0737,-1.0423,-1.3145,5.7311,
10:34:59:960,14.0772,-16.4946,2.0737,-1.0423,-1.3145,5.7311,
10:34:59:962,28.5775,-10.4577,3.7757,-1.0423,-1.3145,5.7311,
10:34:59:964,28.5775,-10.4577,3.7757,-0.596,-2.1127,0.1283,
10:35:00:015,28.5775,-10.4577,3.7757,-0.596,-2.1127,0.1283,
10:35:00:017,28.5775,-10.4577,3.7757,-0.596,-2.1127,0.1283,
10:35:00:019,28.5775,-10.4577,3.7757,-0.596,-2.1127,0.1283,
10:35:00:021,0.6758,-4.8759,-1.8627,-0.596,-2.1127,0.1283,
10:35:00:022,0.6758,-4.8759,-1.8627,-0.3801,-1.0144,-2.7297,
10:35:00:074,0.6758,-4.8759,-1.8627,-0.3801,-1.0144,-2.7297,
10:35:00:078,0.6758,-4.8759,-1.8627,-0.3801,-1.0144,-2.7297,
10:35:00:079,0.6758,-4.8759,-1.8627,-0.3801,-1.0144,-2.7297,
10:35:00:080,0.6758,-4.8759,-1.8627,0.148,0.5359,-3.2168,
10:35:00:081,5.6254,-4.6274,2.161,0.148,0.5359,-3.2168,
10:35:00:132,5.6254,-4.6274,2.161,0.148,0.5359,-3.2168,
10:35:00:133,5.6254,-4.6274,2.161,0.148,0.5359,-3.2168,
10:35:00:134,5.6254,-4.6274,2.161,0.148,0.5359,-3.2168,
10:35:00:136,5.6254,-4.6274,2.161,-0.0654,0.7457,-2.0725,
10:35:00:137,2.3964,-1.3796,1.6014,-0.0654,0.7457,-2.0725,
10:35:00:191,2.3964,-1.3796,1.6014,-0.0654,0.7457,-2.0725,
10:35:00:192,2.3964,-1.3796,1.6014,-0.0654,0.7457,-2.0725,
10:35:00:194,2.3964,-1.3796,1.6014,-0.0654,0.7457,-2.0725,
10:35:00:195,2.3964,-1.3796,1.6014,0.0234,0.0994,-1.4677,
10:35:00:195,0.1539,-0.3118,0.3588,0.0234,0.0994,-1.4677,
10:35:00:249,0.1539,-0.3118,0.3588,0.0234,0.0994,-1.4677,
10:35:00:251,0.1539,-0.3118,0.3588,0.0234,0.0994,-1.4677,
10:35:00:252,0.1539,-0.3118,0.3588,0.0234,0.0994,-1.4677,
10:35:00:253,0.1539,-0.3118,0.3588,0.0662,0.2615,-0.707,
10:35:00:254,-0.4478,0.0057,-0.2979,0.0662,0.2615,-0.707,
10:35:00:308,-0.4478,0.0057,-0.2979,0.0662,0.2615,-0.707,
10:35:00:310,-0.4478,0.0057,-0.2979,0.0662,0.2615,-0.707,
10:35:00:311,-0.4478,0.0057,-0.2979,0.0662,0.2615,-0.707,
10:35:00:312,-0.4478,0.0057,-0.2979,0.1187,0.3287,-0.5799,
10:35:00:314,-0.7152,-0.3149,-0.4285,0.1187,0.3287,-0.5799,
10:35:00:366,-0.7152,-0.3149,-0.4285,0.1187,0.3287,-0.5799,
10:35:00:368,-0.7152,-0.3149,-0.4285,0.1187,0.3287,-0.5799,
10:35:00:369,-0.7152,-0.3149,-0.4285,0.1187,0.3287,-0.5799,
10:35:00:371,-1.3922,-0.7972,-0.471,0.1187,0.3287,-0.5799,
10:35:00:373,-1.3922,-0.7972,-0.471,0.2091,0.4382,-0.6671,
10:35:00:425,-1.3922,-0.7972,-0.471,0.2091,0.4382,-0.6671,
10:35:00:428,-1.3922,-0.7972,-0.471,0.2091,0.4382,-0.6671,
10:35:00:429,-1.3922,-0.7972,-0.471,0.2091,0.4382,-0.6671,
10:35:00:430,-1.3922,-0.7972,-0.471,0.2621,0.2224,-1.0678,
10:35:00:431,-1.0958,-0.949,0.4101,0.2621,0.2224,-1.0678,
10:35:00:482,-1.0958,-0.949,0.4101,0.2621,0.2224,-1.0678,
10:35:00:484,-1.0958,-0.949,0.4101,0.2621,0.2224,-1.0678,
10:35:00:485,-1.0958,-0.949,0.4101,0.2621,0.2224,-1.0678,
10:35:00:485,-1.0958,-0.949,0.4101,0.3683,0.4736,-1.5068,
10:35:00:488,-2.0701,-2.0545,-0.675,0.3683,0.4736,-1.5068,
10:35:00:540,-2.0701,-2.0545,-0.675,0.3683,0.4736,-1.5068,
10:35:00:543,-2.0701,-2.0545,-0.675,0.3683,0.4736,-1.5068,
10:35:00:544,-2.0701,-2.0545,-0.675,0.3683,0.4736,-1.5068,
10:35:00:545,-3.7223,-4.2905,-0.6986,0.3683,0.4736,-1.5068,
10:35:00:546,-3.7223,-4.2905,-0.6986,0.6465,0.384,-2.4817,
10:35:00:599,-3.7223,-4.2905,-0.6986,0.6465,0.384,-2.4817,
10:35:00:601,-3.7223,-4.2905,-0.6986,0.6465,0.384,-2.4817,
10:35:00:601,-3.7223,-4.2905,-0.6986,0.6465,0.384,-2.4817,
10:35:00:602,-3.7223,-4.2905,-0.6986,0.8013,1.2963,-3.1749,
10:35:00:602,-7.4026,-8.4548,-5.0651,0.8013,1.2963,-3.1749,
10:35:00:658,-7.4026,-8.4548,-5.0651,0.8013,1.2963,-3.1749,
10:35:00:660,-7.4026,-8.4548,-5.0651,0.8013,1.2963,-3.1749,
10:35:00:661,-7.4026,-8.4548,-5.0651,0.8013,1.2963,-3.1749,
10:35:00:662,-7.4026,-8.4548,-5.0651,0.3134,2.0134,-3.102,
10:35:00:663,-12.7279,-16.7868,-7.6049,0.3134,2.0134,-3.102,
10:35:00:715,-12.7279,-16.7868,-7.6049,-0.1285,0.5278,-1.08,
10:35:00:717,-6.0488,0.5354,-2.0917,-0.1285,0.5278,-1.08,
10:35:00:745,-6.0488,0.5354,-2.0917,-0.1285,0.5278,-1.08,
10:35:00:747,-6.0488,0.5354,-2.0917,-0.1285,0.5278,-1.08,
10:35:00:749,-6.0488,0.5354,-2.0917,-0.1285,0.5278,-1.08,
10:35:00:750,-6.0488,0.5354,-2.0917,-0.1285,0.5278,-1.08,
10:35:00:793,-6.0488,0.5354,-2.0917,-0.5764,-0.3201,1.596,
10:35:00:794,-6.9697,3.3214,-1.4428,-0.5764,-0.3201,1.596,
10:35:00:832,-5.4269,4.2853,-0.6236,-0.5764,-0.3201,1.596,
10:35:00:834,-5.4269,4.2853,-0.6236,-1.0818,-0.9574,3.1622,
10:35:00:835,-5.4269,4.2853,-0.6236,-1.0818,-0.9574,3.1622,
10:35:00:835,-5.4269,4.2853,-0.6236,-1.0818,-0.9574,3.1622,
10:35:00:836,-5.4269,4.2853,-0.6236,-1.0818,-0.9574,3.1622,
10:35:00:837,-5.4269,4.2853,-0.6236,-1.0818,-0.9574,3.1622,
10:35:00:874,-4.1421,1.1208,0.1607,-1.0818,-0.9574,3.1622,
10:35:00:876,-4.1421,1.1208,0.1607,-1.171,-0.6003,4.7277,
10:35:00:917,-4.1421,1.1208,0.1607,-1.171,-0.6003,4.7277,
10:35:00:920,-4.1421,1.1208,0.1607,-1.171,-0.6003,4.7277,
10:35:00:921,-4.1421,1.1208,0.1607,-1.171,-0.6003,4.7277,
10:35:00:922,-4.1421,1.1208,0.1607,-1.171,-0.6003,4.7277,
10:35:00:923,-4.1421,1.1208,0.1607,-1.171,-0.6003,4.7277,
10:35:00:968,4.2714,-14.9336,-0.5936,-1.171,-0.6003,4.7277,
10:35:00:970,4.2714,-14.9336,-0.5936,-1.3518,-0.3311,5.8549,
10:35:00:989,7.6917,-15.7746,-0.0083,-1.3518,-0.3311,5.8549,
10:35:00:991,7.6917,-15.7746,-0.0083,-1.4072,-1.0502,6.4295,
10:35:00:993,7.6917,-15.7746,-0.0083,-1.4072,-1.0502,6.4295,
10:35:00:995,7.6917,-15.7746,-0.0083,-1.4072,-1.0502,6.4295,
10:35:00:997,7.6917,-15.7746,-0.0083,-1.4072,-1.0502,6.4295,
10:35:00:998,7.6917,-15.7746,-0.0083,-1.4072,-1.0502,6.4295,
10:35:01:045,7.6917,-15.7746,-0.0083,-0.8024,-1.3614,2.0871,
10:35:01:047,28.9904,-12.7349,3.8256,-0.8024,-1.3614,2.0871,
10:35:01:076,28.9904,-12.7349,3.8256,-0.8024,-1.3614,2.0871,
10:35:01:079,28.9904,-12.7349,3.8256,-0.8024,-1.3614,2.0871,
10:35:01:080,28.9904,-12.7349,3.8256,-0.8024,-1.3614,2.0871,
10:35:01:081,28.9904,-12.7349,3.8256,-0.8024,-1.3614,2.0871,
10:35:01:123,28.9904,-12.7349,3.8256,-0.607,-2.3005,-2.9309,
10:35:01:125,6.2061,-6.4893,1.5516,-0.607,-2.3005,-2.9309,
10:35:01:163,6.2061,-6.4893,1.5516,0.0564,0.47,-3.6709,
10:35:01:164,6.2061,-6.4893,1.5516,0.0564,0.47,-3.6709,
10:35:01:165,6.2061,-6.4893,1.5516,0.0564,0.47,-3.6709,
10:35:01:166,6.2061,-6.4893,1.5516,0.0564,0.47,-3.6709,
10:35:01:167,6.2061,-6.4893,1.5516,0.0564,0.47,-3.6709,
10:35:01:168,6.2061,-6.4893,1.5516,0.0564,0.47,-3.6709,
10:35:01:169,10.3837,-4.9156,2.3569,0.0564,0.47,-3.6709,
10:35:01:220,10.3837,-4.9156,2.3569,-0.1623,0.8104,-2.1075,
10:35:01:223,0.449,-0.9481,2.1447,-0.1623,0.8104,-2.1075,
10:35:01:250,0.449,-0.9481,2.1447,-0.1623,0.8104,-2.1075,
10:35:01:252,0.449,-0.9481,2.1447,-0.1623,0.8104,-2.1075,
10:35:01:253,0.449,-0.9481,2.1447,-0.1623,0.8104,-2.1075,
10:35:01:254,0.449,-0.9481,2.1447,-0.1623,0.8104,-2.1075,
10:35:01:298,0.449,-0.9481,2.1447,0.047,0.1193,-1.405,
10:35:01:301,-0.2255,-0.0643,-0.1638,0.047,0.1193,-1.405,
10:35:01:319,-0.2255,-0.0643,-0.1638,0.047,0.1193,-1.405,
10:35:01:321,-0.2255,-0.0643,-0.1638,0.047,0.1193,-1.405,
10:35:01:323,-0.2255,-0.0643,-0.1638,0.047,0.1193,-1.405,
10:35:01:324,-0.2255,-0.0643,-0.1638,0.047,0.1193,-1.405,
10:35:01:375,-0.2255,-0.0643,-0.1638,0.1741,0.2769,-0.6923,
10:35:01:378,-0.6503,0.0488,-0.581,0.1741,0.2769,-0.6923,
10:35:01:405,-0.6503,0.0488,-0.581,0.194,0.3897,-0.3551,
10:35:01:407,-0.8972,0.0538,-0.7064,0.194,0.3897,-0.3551,
10:35:01:407,-0.8972,0.0538,-0.7064,0.194,0.3897,-0.3551,
10:35:01:408,-0.8972,0.0538,-0.7064,0.194,0.3897,-0.3551,
10:35:01:409,-0.8972,0.0538,-0.7064,0.194,0.3897,-0.3551,
10:35:01:410,-0.8972,0.0538,-0.7064,0.194,0.3897,-0.3551,
10:35:01:453,-0.8972,0.0538,-0.7064,0.2107,0.2545,-0.5547,
10:35:01:455,-0.9027,-0.2538,0.7357,0.2107,0.2545,-0.5547,
10:35:01:495,-0.9027,-0.2538,0.7357,0.2107,0.2545,-0.5547,
10:35:01:497,-0.9027,-0.2538,0.7357,0.2107,0.2545,-0.5547,
10:35:01:498,-0.9027,-0.2538,0.7357,0.2107,0.2545,-0.5547,
10:35:01:500,-0.9027,-0.2538,0.7357,0.2107,0.2545,-0.5547,
10:35:01:501,-0.9027,-0.2538,0.7357,0.2107,0.2545,-0.5547,
10:35:01:550,-0.9027,-0.2538,0.7357,0.1888,0.2745,-0.9505,
10:35:01:553,-1.9201,-2.5892,0.1109,0.1888,0.2745,-0.9505,
10:35:01:581,-1.9201,-2.5892,0.1109,0.4021,0.3523,-1.7365,
10:35:01:584,-1.9201,-2.5892,0.1109,0.4021,0.3523,-1.7365,
10:35:01:585,-1.9201,-2.5892,0.1109,0.4021,0.3523,-1.7365,
10:35:01:586,-1.9201,-2.5892,0.1109,0.4021,0.3523,-1.7365,
10:35:01:587,-1.9201,-2.5892,0.1109,0.4021,0.3523,-1.7365,
10:35:01:588,-2.8671,-2.7674,-0.1621,0.4021,0.3523,-1.7365,
10:35:01:628,-2.8671,-2.7674,-0.1621,0.7679,0.4569,-2.4622,
10:35:01:630,-4.5348,-4.1948,-2.2488,0.7679,0.4569,-2.4622,
10:35:01:651,-4.5348,-4.1948,-2.2488,0.7679,0.4569,-2.4622,
10:35:01:653,-4.5348,-4.1948,-2.2488,0.7679,0.4569,-2.4622,
10:35:01:654,-4.5348,-4.1948,-2.2488,0.7679,0.4569,-2.4622,
10:35:01:654,-4.5348,-4.1948,-2.2488,0.7679,0.4569,-2.4622,
10:35:01:706,-4.5348,-4.1948,-2.2488,0.7507,1.3635,-2.9949,
10:35:01:709,-7.9161,-7.9798,-4.6195,0.7507,1.3635,-2.9949,
10:35:01:736,-7.9161,-7.9798,-4.6195,0.7507,1.3635,-2.9949,
10:35:01:738,-7.9161,-7.9798,-4.6195,0.7507,1.3635,-2.9949,
10:35:01:739,-7.9161,-7.9798,-4.6195,0.7507,1.3635,-2.9949,
10:35:01:740,-7.9161,-7.9798,-4.6195,0.7507,1.3635,-2.9949,
10:35:01:783,-7.9161,-7.9798,-4.6195,0.0491,2.1397,-2.9655,
10:35:01:785,-5.7676,2.1112,-2.7478,0.0491,2.1397,-2.9655,
10:35:01:826,-5.7676,2.1112,-2.7478,-0.7471,1.9987,-0.977,
10:35:01:828,-5.7676,2.1112,-2.7478,-0.7471,1.9987,-0.977,
10:35:01:830,-5.7676,2.1112,-2.7478,-0.7471,1.9987,-0.977,
10:35:01:831,-5.7676,2.1112,-2.7478,-0.7471,1.9987,-0.977,
10:35:01:833,-5.7676,2.1112,-2.7478,-0.7471,1.9987,-0.977,
10:35:01:834,-5.7676,2.1112,-2.7478,-0.7471,1.9987,-0.977,
10:35:01:835,-6.0406,1.666,-3.275,-0.7471,1.9987,-0.977,
10:35:01:881,-6.0406,1.666,-3.275,-1.5058,-0.5127,1.7043,
10:35:01:883,-17.1712,3.6186,-0.0558,-1.5058,-0.5127,1.7043,
10:35:01:911,-17.1712,3.6186,-0.0558,-1.5058,-0.5127,1.7043,
10:35:01:913,-17.1712,3.6186,-0.0558,-1.5058,-0.5127,1.7043,
10:35:01:915,-17.1712,3.6186,-0.0558,-1.5058,-0.5127,1.7043,
10:35:01:916,-17.1712,3.6186,-0.0558,-1.5058,-0.5127,1.7043,
10:35:01:958,-17.1712,3.6186,-0.0558,-1.6829,-0.9672,3.7083,
10:35:01:961,-6.3905,-1.5798,0.148,-1.6829,-0.9672,3.7083,
10:35:01:986,-6.3905,-1.5798,0.148,-1.3954,0.1104,5.3727,
10:35:01:988,-3.5868,-0.6875,0.8399,-1.3954,0.1104,5.3727,
10:35:01:990,-3.5868,-0.6875,0.8399,-1.3954,0.1104,5.3727,
10:35:01:992,-3.5868,-0.6875,0.8399,-1.3954,0.1104,5.3727,
10:35:01:996,-3.5868,-0.6875,0.8399,-1.3954,0.1104,5.3727,
10:35:01:997,-3.5868,-0.6875,0.8399,-1.3954,0.1104,5.3727,
10:35:02:036,1.2029,-7.955,2.7884,-1.3954,0.1104,5.3727,
10:35:02:038,1.2029,-7.955,2.7884,-1.5664,-0.6125,6.2723,
10:35:02:067,1.2029,-7.955,2.7884,-1.5664,-0.6125,6.2723,
10:35:02:069,1.2029,-7.955,2.7884,-1.5664,-0.6125,6.2723,
10:35:02:070,1.2029,-7.955,2.7884,-1.5664,-0.6125,6.2723,
10:35:02:071,1.2029,-7.955,2.7884,-1.5664,-0.6125,6.2723,
10:35:02:115,1.2029,-7.955,2.7884,-1.2032,-2.8743,5.2481,
10:35:02:118,15.9268,-16.0894,1.1939,-1.2032,-2.8743,5.2481,
10:35:02:154,15.9268,-16.0894,1.1939,-0.7194,-2.2394,-0.1625,
10:35:02:157,24.1806,-10.4198,-0.0718,-0.7194,-2.2394,-0.1625,
10:35:02:159,24.1806,-10.4198,-0.0718,-0.7194,-2.2394,-0.1625,
10:35:02:160,24.1806,-10.4198,-0.0718,-0.7194,-2.2394,-0.1625,
10:35:02:161,24.1806,-10.4198,-0.0718,-0.7194,-2.2394,-0.1625,
10:35:02:162,24.1806,-10.4198,-0.0718,-0.7194,-2.2394,-0.1625,
10:35:02:163,24.1806,-10.4198,-0.0718,-0.7194,-2.2394,-0.1625,
10:35:02:211,24.1806,-10.4198,-0.0718,-0.4013,-2.3107,-3.3671,
10:35:02:213,2.9599,-4.7749,3.1288,-0.4013,-2.3107,-3.3671,
10:35:02:242,2.9599,-4.7749,3.1288,-0.4013,-2.3107,-3.3671,
10:35:02:244,2.9599,-4.7749,3.1288,-0.4013,-2.3107,-3.3671,
10:35:02:245,2.9599,-4.7749,3.1288,-0.4013,-2.3107,-3.3671,
10:35:02:247,2.9599,-4.7749,3.1288,-0.4013,-2.3107,-3.3671,
10:35:02:288,2.9599,-4.7749,3.1288,-0.0511,0.2802,-3.5805,
10:35:02:290,7.5894,-4.2186,0.8055,-0.0511,0.2802,-3.5805,
10:35:02:311,7.5894,-4.2186,0.8055,-0.0511,0.2802,-3.5805,
10:35:02:313,7.5894,-4.2186,0.8055,-0.0511,0.2802,-3.5805,
10:35:02:314,7.5894,-4.2186,0.8055,-0.0511,0.2802,-3.5805,
10:35:02:315,7.5894,-4.2186,0.8055,-0.0511,0.2802,-3.5805,
10:35:02:366,7.5894,-4.2186,0.8055,-0.2343,0.6149,-1.9246,
10:35:02:368,0.1558,-0.0608,-0.0515,-0.2343,0.6149,-1.9246,
10:35:02:399,-0.5509,-0.1059,-0.0611,-0.2343,0.6149,-1.9246,
10:35:02:401,-0.5509,-0.1059,-0.0611,0.0116,0.1438,-1.2457,
10:35:02:402,-0.5509,-0.1059,-0.0611,0.0116,0.1438,-1.2457,
10:35:02:403,-0.5509,-0.1059,-0.0611,0.0116,0.1438,-1.2457,
10:35:02:404,-0.5509,-0.1059,-0.0611,0.0116,0.1438,-1.2457,
10:35:02:406,-0.5509,-0.1059,-0.0611,0.0116,0.1438,-1.2457,
10:35:02:443,-0.5509,-0.1059,-0.0611,0.2315,0.2195,-0.6654,
10:35:02:445,-1.1418,-0.0478,-0.5612,0.2315,0.2195,-0.6654,
10:35:02:485,-1.1418,-0.0478,-0.5612,0.2315,0.2195,-0.6654,
10:35:02:488,-1.1418,-0.0478,-0.5612,0.2315,0.2195,-0.6654,
10:35:02:488,-1.1418,-0.0478,-0.5612,0.2315,0.2195,-0.6654,
10:35:02:489,-1.1418,-0.0478,-0.5612,0.2315,0.2195,-0.6654,
10:35:02:490,-1.1418,-0.0478,-0.5612,0.2315,0.2195,-0.6654,
10:35:02:543,-1.1044,-0.5399,0.3933,0.2315,0.2195,-0.6654,
10:35:02:547,-1.1044,-0.5399,0.3933,0.2144,0.3177,-0.3698,
10:35:02:572,-1.1044,-0.5399,0.3933,0.1908,0.3225,-0.7664,
10:35:02:574,-1.5456,-0.5883,0.2485,0.1908,0.3225,-0.7664,
10:35:02:575,-1.5456,-0.5883,0.2485,0.1908,0.3225,-0.7664,
10:35:02:576,-1.5456,-0.5883,0.2485,0.1908,0.3225,-0.7664,
10:35:02:578,-1.5456,-0.5883,0.2485,0.1908,0.3225,-0.7664,
10:35:02:579,-1.5456,-0.5883,0.2485,0.1908,0.3225,-0.7664,
10:35:02:619,-1.5456,-0.5883,0.2485,0.2315,0.3156,-1.2498,
10:35:02:621,-2.0,-1.3498,-0.2822,0.2315,0.3156,-1.2498,
10:35:02:641,-2.0,-1.3498,-0.2822,0.2315,0.3156,-1.2498,
10:35:02:645,-2.0,-1.3498,-0.2822,0.2315,0.3156,-1.2498,
10:35:02:648,-2.0,-1.3498,-0.2822,0.2315,0.3156,-1.2498,
10:35:02:651,-2.0,-1.3498,-0.2822,0.2315,0.3156,-1.2498,
10:35:02:696,-2.0,-1.3498,-0.2822,0.4718,0.3669,-2.0427,
10:35:02:698,-3.5568,-3.5642,-0.3585,0.4718,0.3669,-2.0427,
10:35:02:728,-3.5568,-3.5642,-0.3585,0.4718,0.3669,-2.0427,
10:35:02:731,-3.5568,-3.5642,-0.3585,0.4718,0.3669,-2.0427,
10:35:02:733,-3.5568,-3.5642,-0.3585,0.4718,0.3669,-2.0427,
10:35:02:734,-3.5568,-3.5642,-0.3585,0.4718,0.3669,-2.0427,
10:35:02:774,-3.5568,-3.5642,-0.3585,0.8591,0.4419,-2.9655,
10:35:02:777,-7.8896,-11.9842,-8.243,0.8591,0.4419,-2.9655,
10:35:02:814,-7.8896,-11.9842,-8.243,0.5398,1.5748,-3.4836,
10:35:02:817,-9.4257,-12.9757,-8.9134,0.5398,1.5748,-3.4836,
10:35:02:818,-9.4257,-12.9757,-8.9134,0.5398,1.5748,-3.4836,
10:35:02:819,-9.4257,-12.9757,-8.9134,0.5398,1.5748,-3.4836,
10:35:02:820,-9.4257,-12.9757,-8.9134,0.5398,1.5748,-3.4836,
10:35:02:821,-9.4257,-12.9757,-8.9134,0.5398,1.5748,-3.4836,
10:35:02:822,-9.4257,-12.9757,-8.9134,0.5398,1.5748,-3.4836,
10:35:02:871,-9.4257,-12.9757,-8.9134,0.1635,2.3616,-1.6673,
10:35:02:873,-20.6358,-12.3164,-5.9418,0.1635,2.3616,-1.6673,
10:35:02:901,-20.6358,-12.3164,-5.9418,0.1635,2.3616,-1.6673,
10:35:02:904,-20.6358,-12.3164,-5.9418,0.1635,2.3616,-1.6673,
10:35:02:906,-20.6358,-12.3164,-5.9418,0.1635,2.3616,-1.6673,
10:35:02:907,-20.6358,-12.3164,-5.9418,0.1635,2.3616,-1.6673,
10:35:02:949,-20.6358,-12.3164,-5.9418,-0.5145,-0.2895,-0.4093,
10:35:02:951,-10.7293,4.8464,-1.9147,-0.5145,-0.2895,-0.4093,
10:35:02:972,-9.8178,5.3636,-0.7175,-0.5145,-0.2895,-0.4093,
10:35:02:973,-9.8178,5.3636,-0.7175,-1.083,-1.8761,1.6412,
10:35:02:974,-9.8178,5.3636,-0.7175,-1.083,-1.8761,1.6412,
10:35:02:975,-9.8178,5.3636,-0.7175,-1.083,-1.8761,1.6412,
10:35:02:976,-9.8178,5.3636,-0.7175,-1.083,-1.8761,1.6412,
10:35:02:977,-9.8178,5.3636,-0.7175,-1.083,-1.8761,1.6412,
10:35:03:026,-9.8178,5.3636,-0.7175,-0.8082,-1.3882,3.9018,
10:35:03:028,-5.1605,3.6555,1.4986,-0.8082,-1.3882,3.9018,
10:35:03:059,-5.1605,3.6555,1.4986,-0.8082,-1.3882,3.9018,
10:35:03:063,-5.1605,3.6555,1.4986,-0.8082,-1.3882,3.9018,
10:35:03:064,-5.1605,3.6555,1.4986,-0.8082,-1.3882,3.9018,
10:35:03:065,-5.1605,3.6555,1.4986,-0.8082,-1.3882,3.9018,
10:35:03:103,-5.1605,3.6555,1.4986,-0.587,-0.9411,5.4554,
10:35:03:105,-2.467,-0.8472,-0.0686,-0.587,-0.9411,5.4554,
10:35:03:146,-2.467,-0.8472,-0.0686,-0.9087,-1.0014,6.3778,
10:35:03:148,3.639,-7.9619,0.4603,-0.9087,-1.0014,6.3778,
10:35:03:149,3.639,-7.9619,0.4603,-0.9087,-1.0014,6.3778,
10:35:03:150,3.639,-7.9619,0.4603,-0.9087,-1.0014,6.3778,
10:35:03:150,3.639,-7.9619,0.4603,-0.9087,-1.0014,6.3778,
10:35:03:151,3.639,-7.9619,0.4603,-0.9087,-1.0014,6.3778,
10:35:03:151,3.639,-7.9619,0.4603,-0.9087,-1.0014,6.3778,
10:35:03:200,3.639,-7.9619,0.4603,-0.8249,-1.4982,5.1259,
10:35:03:202,18.0198,-16.1724,-0.5308,-0.8249,-1.4982,5.1259,
10:35:03:235,18.0198,-16.1724,-0.5308,-0.8249,-1.4982,5.1259,
10:35:03:237,18.0198,-16.1724,-0.5308,-0.8249,-1.4982,5.1259,
10:35:03:238,18.0198,-16.1724,-0.5308,-0.8249,-1.4982,5.1259,
10:35:03:240,18.0198,-16.1724,-0.5308,-0.8249,-1.4982,5.1259,
10:35:03:278,18.0198,-16.1724,-0.5308,-0.5728,-1.3724,-0.4924,
10:35:03:283,21.1961,-11.5242,0.0423,-0.5728,-1.3724,-0.4924,
10:35:03:301,21.1961,-11.5242,0.0423,-0.5728,-1.3724,-0.4924,
10:35:03:304,21.1961,-11.5242,0.0423,-0.5728,-1.3724,-0.4924,
10:35:03:305,21.1961,-11.5242,0.0423,-0.5728,-1.3724,-0.4924,
10:35:03:306,21.1961,-11.5242,0.0423,-0.5728,-1.3724,-0.4924,
10:35:03:356,21.1961,-11.5242,0.0423,-0.0617,-0.4834,-3.3064,
10:35:03:358,8.3861,-3.5771,0.0285,-0.0617,-0.4834,-3.3064,
10:35:03:389,8.3861,-3.5771,0.0285,-0.201,0.2456,-3.4127,
10:35:03:391,8.3861,-3.5771,0.0285,-0.201,0.2456,-3.4127,
10:35:03:392,8.3861,-3.5771,0.0285,-0.201,0.2456,-3.4127,
10:35:03:393,8.3861,-3.5771,0.0285,-0.201,0.2456,-3.4127,
10:35:03:394,8.3861,-3.5771,0.0285,-0.201,0.2456,-3.4127,
10:35:03:395,6.4042,-3.2058,0.1526,-0.201,0.2456,-3.4127,
10:35:03:435,1.2798,-0.1573,1.0143,-0.201,0.2456,-3.4127,
10:35:03:437,1.2798,-0.1573,1.0143,-0.2217,0.7221,-1.5536,
10:35:03:477,1.2798,-0.1573,1.0143,-0.2217,0.7221,-1.5536,
10:35:03:480,1.2798,-0.1573,1.0143,-0.2217,0.7221,-1.5536,
10:35:03:481,1.2798,-0.1573,1.0143,-0.2217,0.7221,-1.5536,
10:35:03:482,1.2798,-0.1573,1.0143,-0.2217,0.7221,-1.5536,
10:35:03:483,1.2798,-0.1573,1.0143,-0.2217,0.7221,-1.5536,
10:35:03:531,1.2798,-0.1573,1.0143,-0.0788,0.1841,-0.9827,
10:35:03:533,-0.59,-0.0913,-0.3615,-0.0788,0.1841,-0.9827,
10:35:03:563,-0.59,-0.0913,-0.3615,0.1122,0.2794,-0.4223,
10:35:03:565,-0.59,-0.0913,-0.3615,0.1122,0.2794,-0.4223,
10:35:03:566,-0.59,-0.0913,-0.3615,0.1122,0.2794,-0.4223,
10:35:03:567,-0.59,-0.0913,-0.3615,0.1122,0.2794,-0.4223,
10:35:03:568,-0.59,-0.0913,-0.3615,0.1122,0.2794,-0.4223,
10:35:03:569,-0.8535,-0.0945,-0.4318,0.1122,0.2794,-0.4223,
10:35:03:609,-0.8535,-0.0945,-0.4318,0.0645,0.349,-0.2704,
10:35:03:612,-0.866,-0.0398,-0.671,0.0645,0.349,-0.2704,
10:35:03:635,-0.866,-0.0398,-0.671,0.0645,0.349,-0.2704,
10:35:03:637,-0.866,-0.0398,-0.671,0.0645,0.349,-0.2704,
10:35:03:639,-0.866,-0.0398,-0.671,0.0645,0.349,-0.2704,
10:35:03:640,-0.866,-0.0398,-0.671,0.0645,0.349,-0.2704,
10:35:03:687,-0.866,-0.0398,-0.671,-0.0063,0.2981,-0.8629,
10:35:03:689,-1.35,-0.7432,0.7109,-0.0063,0.2981,-0.8629,
10:35:03:719,-1.35,-0.7432,0.7109,-0.0063,0.2981,-0.8629,
10:35:03:722,-1.35,-0.7432,0.7109,-0.0063,0.2981,-0.8629,
10:35:03:723,-1.35,-0.7432,0.7109,-0.0063,0.2981,-0.8629,
10:35:03:725,-1.35,-0.7432,0.7109,-0.0063,0.2981,-0.8629,
10:35:03:764,-1.35,-0.7432,0.7109,-0.0499,0.1218,-1.5915,
10:35:03:767,-2.0309,-2.7455,-0.3946,-0.0499,0.1218,-1.5915,
10:35:03:806,-3.0868,-3.0354,-0.5639,-0.0499,0.1218,-1.5915,
10:35:03:808,-3.0868,-3.0354,-0.5639,0.2673,0.2187,-2.0712,
10:35:03:810,-3.0868,-3.0354,-0.5639,0.2673,0.2187,-2.0712,
10:35:03:811,-3.0868,-3.0354,-0.5639,0.2673,0.2187,-2.0712,
10:35:03:812,-3.0868,-3.0354,-0.5639,0.2673,0.2187,-2.0712,
10:35:03:813,-3.0868,-3.0354,-0.5639,0.2673,0.2187,-2.0712,
10:35:03:816,-3.0868,-3.0354,-0.5639,0.2673,0.2187,-2.0712,
10:35:03:861,-3.0868,-3.0354,-0.5639,0.5952,0.5571,-2.6894,
10:35:03:863,-4.6893,-4.8904,-1.6823,0.5952,0.5571,-2.6894,
10:35:03:893,-4.6893,-4.8904,-1.6823,0.5952,0.5571,-2.6894,
10:35:03:896,-4.6893,-4.8904,-1.6823,0.5952,0.5571,-2.6894,
10:35:03:897,-4.6893,-4.8904,-1.6823,0.5952,0.5571,-2.6894,
10:35:03:898,-4.6893,-4.8904,-1.6823,0.5952,0.5571,-2.6894,
10:35:03:939,-4.6893,-4.8904,-1.6823,0.6701,1.4689,-3.3369,
10:35:03:943,-15.0126,-16.0299,-5.3956,0.6701,1.4689,-3.3369,
10:35:03:969,-15.0126,-16.0299,-5.3956,0.2001,1.5577,-2.6043,
10:35:03:971,-15.0126,-16.0299,-5.3956,0.2001,1.5577,-2.6043,
10:35:03:972,-15.0126,-16.0299,-5.3956,0.2001,1.5577,-2.6043,
10:35:03:974,-15.0126,-16.0299,-5.3956,0.2001,1.5577,-2.6043,
10:35:03:977,-15.0126,-16.0299,-5.3956,0.2001,1.5577,-2.6043,
10:35:03:979,-15.9098,-16.798,-6.019,0.2001,1.5577,-2.6043,
10:35:04:018,-15.9098,-16.798,-6.019,-0.2954,1.1704,-0.9155,
10:35:04:020,-3.548,1.4512,-1.8227,-0.2954,1.1704,-0.9155,
10:35:04:050,-3.548,1.4512,-1.8227,-0.2954,1.1704,-0.9155,
10:35:04:052,-3.548,1.4512,-1.8227,-0.2954,1.1704,-0.9155,
10:35:04:053,-3.548,1.4512,-1.8227,-0.2954,1.1704,-0.9155,
10:35:04:054,-3.548,1.4512,-1.8227,-0.2954,1.1704,-0.9155,
10:35:04:094,-3.548,1.4512,-1.8227,-0.5838,-0.3363,1.7996,
10:35:04:097,-14.853,3.9006,1.4055,-0.5838,-0.3363,1.7996,
10:35:04:138,-14.853,3.9006,1.4055,-0.6351,-1.7923,3.5275,
10:35:04:141,-4.9576,3.4973,1.4186,-0.6351,-1.7923,3.5275,
10:35:04:144,-4.9576,3.4973,1.4186,-0.6351,-1.7923,3.5275,
10:35:04:146,-4.9576,3.4973,1.4186,-0.6351,-1.7923,3.5275,
10:35:04:147,-4.9576,3.4973,1.4186,-0.6351,-1.7923,3.5275,
10:35:04:148,-4.9576,3.4973,1.4186,-0.6351,-1.7923,3.5275,
10:35:04:150,-4.9576,3.4973,1.4186,-0.6351,-1.7923,3.5275,
10:35:04:191,-4.9576,3.4973,1.4186,-0.3276,-1.3895,5.0864,
10:35:04:193,-3.9508,0.3926,0.2717,-0.3276,-1.3895,5.0864,
10:35:04:227,-3.9508,0.3926,0.2717,-0.3276,-1.3895,5.0864,
10:35:04:231,-3.9508,0.3926,0.2717,-0.3276,-1.3895,5.0864,
10:35:04:232,-3.9508,0.3926,0.2717,-0.3276,-1.3895,5.0864,
10:35:04:233,-3.9508,0.3926,0.2717,-0.3276,-1.3895,5.0864,
10:35:04:269,-3.9508,0.3926,0.2717,-0.3109,-0.4321,6.5004,
10:35:04:271,1.1181,-5.5787,-0.2239,-0.3109,-0.4321,6.5004,
10:35:04:293,1.1181,-5.5787,-0.2239,-0.3109,-0.4321,6.5004,
10:35:04:295,1.1181,-5.5787,-0.2239,-0.3109,-0.4321,6.5004,
10:35:04:297,1.1181,-5.5787,-0.2239,-0.3109,-0.4321,6.5004,
10:35:04:297,1.1181,-5.5787,-0.2239,-0.3109,-0.4321,6.5004,
10:35:04:347,1.1181,-5.5787,-0.2239,-0.5589,-0.8022,6.3607,
10:35:04:348,29.0821,-11.4764,1.4193,-0.5589,-0.8022,6.3607,
10:35:04:379,29.3744,-11.7056,1.2978,-0.5589,-0.8022,6.3607,
10:35:04:381,29.3744,-11.7056,1.2978,-0.3488,-0.9211,1.3997,
10:35:04:384,29.3744,-11.7056,1.2978,-0.3488,-0.9211,1.3997,
10:35:04:386,29.3744,-11.7056,1.2978,-0.3488,-0.9211,1.3997,
10:35:04:388,29.3744,-11.7056,1.2978,-0.3488,-0.9211,1.3997,
10:35:04:389,29.3744,-11.7056,1.2978,-0.3488,-0.9211,1.3997,
10:35:04:424,29.3744,-11.7056,1.2978,-0.4123,-1.1631,-2.5408,
10:35:04:427,0.4801,-6.2521,-3.4721,-0.4123,-1.1631,-2.5408,
10:35:04:464,0.4801,-6.2521,-3.4721,-0.4123,-1.1631,-2.5408,
10:35:04:466,0.4801,-6.2521,-3.4721,-0.4123,-1.1631,-2.5408,
10:35:04:467,0.4801,-6.2521,-3.4721,-0.4123,-1.1631,-2.5408,
10:35:04:468,0.4801,-6.2521,-3.4721,-0.4123,-1.1631,-2.5408,
10:35:04:469,0.4801,-6.2521,-3.4721,-0.4123,-1.1631,-2.5408,
10:35:04:521,0.4801,-6.2521,-3.4721,-0.1024,-0.1674,-3.5088,
10:35:04:523,7.5906,-2.5393,0.2238,-0.1024,-0.1674,-3.5088,
10:35:04:551,7.5906,-2.5393,0.2238,-0.2755,0.7563,-2.5212,
10:35:04:553,6.0177,-2.4169,0.3937,-0.2755,0.7563,-2.5212,
10:35:04:555,6.0177,-2.4169,0.3937,-0.2755,0.7563,-2.5212,
10:35:04:556,6.0177,-2.4169,0.3937,-0.2755,0.7563,-2.5212,
10:35:04:557,6.0177,-2.4169,0.3937,-0.2755,0.7563,-2.5212,
10:35:04:558,6.0177,-2.4169,0.3937,-0.2755,0.7563,-2.5212,
10:35:04:600,-0.0879,-0.6949,0.6677,-0.2755,0.7563,-2.5212,
10:35:04:602,-0.0879,-0.6949,0.6677,-0.183,0.2525,-1.4127,
10:35:04:624,-0.0879,-0.6949,0.6677,-0.183,0.2525,-1.4127,
10:35:04:626,-0.0879,-0.6949,0.6677,-0.183,0.2525,-1.4127,
10:35:04:627,-0.0879,-0.6949,0.6677,-0.183,0.2525,-1.4127,
10:35:04:629,-0.0879,-0.6949,0.6677,-0.183,0.2525,-1.4127,
10:35:04:677,-0.7409,-0.2533,-0.2239,-0.183,0.2525,-1.4127,
10:35:04:678,-0.7409,-0.2533,-0.2239,0.0829,0.244,-0.6206,
10:35:04:711,-0.7409,-0.2533,-0.2239,0.0829,0.244,-0.6206,
10:35:04:713,-0.7409,-0.2533,-0.2239,0.0829,0.244,-0.6206,
10:35:04:714,-0.7409,-0.2533,-0.2239,0.0829,0.244,-0.6206,
10:35:04:715,-0.7409,-0.2533,-0.2239,0.0829,0.244,-0.6206,
10:35:04:754,-0.7409,-0.2533,-0.2239,0.1476,0.292,-0.4622,
10:35:04:756,-1.049,-0.4674,-0.5772,0.1476,0.292,-0.4622,
10:35:04:798,-1.049,-0.4674,-0.5772,0.0922,0.494,-0.6096,
10:35:04:799,-1.049,-0.4674,-0.5772,0.0922,0.494,-0.6096,
10:35:04:800,-1.049,-0.4674,-0.5772,0.0922,0.494,-0.6096,
10:35:04:801,-1.049,-0.4674,-0.5772,0.0922,0.494,-0.6096,
10:35:04:801,-1.049,-0.4674,-0.5772,0.0922,0.494,-0.6096,
10:35:04:802,-1.049,-0.4674,-0.5772,0.0922,0.494,-0.6096,
10:35:04:802,-1.4232,-0.5045,-0.6635,0.0922,0.494,-0.6096,
10:35:04:851,-1.4232,-0.5045,-0.6635,0.0902,0.2834,-1.1484,
10:35:04:853,-1.5839,-1.4615,0.947,0.0902,0.2834,-1.1484,
10:35:04:885,-1.5839,-1.4615,0.947,0.0902,0.2834,-1.1484,
10:35:04:887,-1.5839,-1.4615,0.947,0.0902,0.2834,-1.1484,
10:35:04:887,-1.5839,-1.4615,0.947,0.0902,0.2834,-1.1484,
10:35:04:888,-1.5839,-1.4615,0.947,0.0902,0.2834,-1.1484,
10:35:04:929,-1.5839,-1.4615,0.947,0.2478,0.4464,-1.6542,
10:35:04:931,-3.0816,-4.477,-0.7156,0.2478,0.4464,-1.6542,
10:35:04:956,-3.0816,-4.477,-0.7156,0.6168,0.4182,-2.5986,
10:35:04:958,-3.0816,-4.477,-0.7156,0.6168,0.4182,-2.5986,
10:35:04:959,-3.0816,-4.477,-0.7156,0.6168,0.4182,-2.5986,
10:35:04:961,-3.0816,-4.477,-0.7156,0.6168,0.4182,-2.5986,
10:35:04:962,-3.0816,-4.477,-0.7156,0.6168,0.4182,-2.5986,
10:35:04:963,-4.3672,-4.9324,-1.1047,0.6168,0.4182,-2.5986,
10:35:05:006,-4.3672,-4.9324,-1.1047,0.6897,1.374,-3.1863,
10:35:05:008,-8.053,-8.8348,-5.6959,0.6897,1.374,-3.1863,
10:35:05:042,-8.053,-8.8348,-5.6959,0.6897,1.374,-3.1863,
10:35:05:043,-8.053,-8.8348,-5.6959,0.6897,1.374,-3.1863,
10:35:05:044,-8.053,-8.8348,-5.6959,0.6897,1.374,-3.1863,
10:35:05:045,-8.053,-8.8348,-5.6959,0.6897,1.374,-3.1863,
10:35:05:084,-8.053,-8.8348,-5.6959,0.0865,2.6337,-2.834,
10:35:05:086,-13.9586,-16.5084,-9.0699,0.0865,2.6337,-2.834,
10:35:05:129,-13.9586,-16.5084,-9.0699,-0.3928,1.0882,-0.9509,
10:35:05:131,-6.206,0.4604,-1.9881,-0.3928,1.0882,-0.9509,
10:35:05:133,-6.206,0.4604,-1.9881,-0.3928,1.0882,-0.9509,
10:35:05:134,-6.206,0.4604,-1.9881,-0.3928,1.0882,-0.9509,
10:35:05:135,-6.206,0.4604,-1.9881,-0.3928,1.0882,-0.9509,
10:35:05:136,-6.206,0.4604,-1.9881,-0.3928,1.0882,-0.9509,
10:35:05:137,-6.206,0.4604,-1.9881,-0.3928,1.0882,-0.9509,
10:35:05:181,-6.206,0.4604,-1.9881,-0.9401,-1.4082,1.4836,
10:35:05:183,-15.5511,3.6776,-0.0005,-0.9401,-1.4082,1.4836,
10:35:05:217,-15.5511,3.6776,-0.0005,-0.9401,-1.4082,1.4836,
10:35:05:220,-15.5511,3.6776,-0.0005,-0.9401,-1.4082,1.4836,
10:35:05:221,-15.5511,3.6776,-0.0005,-0.9401,-1.4082,1.4836,
10:35:05:222,-15.5511,3.6776,-0.0005,-0.9401,-1.4082,1.4836,
10:35:05:259,-15.5511,3.6776,-0.0005,-0.9495,-1.8114,3.3772,
10:35:05:262,-5.8459,4.0677,0.8177,-0.9495,-1.8114,3.3772,
10:35:05:286,-5.8459,4.0677,0.8177,-0.9495,-1.8114,3.3772,
10:35:05:287,-5.8459,4.0677,0.8177,-0.9495,-1.8114,3.3772,
10:35:05:288,-5.8459,4.0677,0.8177,-0.9495,-1.8114,3.3772,
10:35:05:290,-5.8459,4.0677,0.8177,-0.9495,-1.8114,3.3772,
10:35:05:342,-5.8459,4.0677,0.8177,-0.5011,-1.5455,5.0596,
10:35:05:344,-2.2666,-6.3304,-0.9751,-0.5011,-1.5455,5.0596,
10:35:05:372,-2.2666,-6.3304,-0.9751,-0.4779,-1.2579,6.2662,
10:35:05:375,-2.2666,-6.3304,-0.9751,-0.4779,-1.2579,6.2662,
10:35:05:379,-2.2666,-6.3304,-0.9751,-0.4779,-1.2579,6.2662,
10:35:05:380,-2.2666,-6.3304,-0.9751,-0.4779,-1.2579,6.2662,
10:35:05:381,-2.2666,-6.3304,-0.9751,-0.4779,-1.2579,6.2662,
10:35:05:382,1.2192,-6.1973,-0.6815,-0.4779,-1.2579,6.2662,
10:35:05:414,1.2192,-6.1973,-0.6815,-0.5398,-0.7912,6.3257,
10:35:05:416,13.5061,-16.4329,-2.3114,-0.5398,-0.7912,6.3257,
10:35:05:457,13.5061,-16.4329,-2.3114,-0.5398,-0.7912,6.3257,
10:35:05:461,13.5061,-16.4329,-2.3114,-0.5398,-0.7912,6.3257,
10:35:05:464,13.5061,-16.4329,-2.3114,-0.5398,-0.7912,6.3257,
10:35:05:465,13.5061,-16.4329,-2.3114,-0.5398,-0.7912,6.3257,
10:35:05:466,13.5061,-16.4329,-2.3114,-0.5398,-0.7912,6.3257,
10:35:05:512,13.5061,-16.4329,-2.3114,-0.4376,0.5347,0.9163,
10:35:05:514,1.2089,-7.2915,2.9181,-0.4376,0.5347,0.9163,
10:35:05:547,1.2089,-7.2915,2.9181,-0.4889,-1.3483,-2.7257,
10:35:05:550,0.1392,-6.5832,2.766,-0.4889,-1.3483,-2.7257,
10:35:05:551,0.1392,-6.5832,2.766,-0.4889,-1.3483,-2.7257,
10:35:05:554,0.1392,-6.5832,2.766,-0.4889,-1.3483,-2.7257,
10:35:05:556,0.1392,-6.5832,2.766,-0.4889,-1.3483,-2.7257,
10:35:05:562,0.1392,-6.5832,2.766,-0.4889,-1.3483,-2.7257,
10:35:05:590,0.1392,-6.5832,2.766,0.1049,0.0501,-3.2885,
10:35:05:591,7.0645,-4.808,1.7069,0.1049,0.0501,-3.2885,
10:35:05:615,7.0645,-4.808,1.7069,0.1049,0.0501,-3.2885,
10:35:05:617,7.0645,-4.808,1.7069,0.1049,0.0501,-3.2885,
10:35:05:618,7.0645,-4.808,1.7069,0.1049,0.0501,-3.2885,
10:35:05:619,7.0645,-4.808,1.7069,0.1049,0.0501,-3.2885,
10:35:05:669,7.0645,-4.808,1.7069,0.0397,0.6202,-2.2162,
10:35:05:670,3.7373,-1.3559,1.8138,0.0397,0.6202,-2.2162,
10:35:05:703,3.7373,-1.3559,1.8138,0.0397,0.6202,-2.2162,
10:35:05:705,3.7373,-1.3559,1.8138,0.0397,0.6202,-2.2162,
10:35:05:706,3.7373,-1.3559,1.8138,0.0397,0.6202,-2.2162,
10:35:05:707,3.7373,-1.3559,1.8138,0.0397,0.6202,-2.2162,
10:35:05:746,3.7373,-1.3559,1.8138,0.001,0.2256,-1.339,
10:35:05:748,0.0345,0.2489,-0.4025,0.001,0.2256,-1.339,
10:35:05:790,0.0345,0.2489,-0.4025,0.1175,0.2688,-0.8006,
10:35:05:792,-0.4478,0.242,-0.4679,0.1175,0.2688,-0.8006,
10:35:05:793,-0.4478,0.242,-0.4679,0.1175,0.2688,-0.8006,
10:35:05:794,-0.4478,0.242,-0.4679,0.1175,0.2688,-0.8006,
10:35:05:794,-0.4478,0.242,-0.4679,0.1175,0.2688,-0.8006,
10:35:05:795,-0.4478,0.242,-0.4679,0.1175,0.2688,-0.8006,
10:35:05:796,-0.4478,0.242,-0.4679,0.1175,0.2688,-0.8006,
10:35:05:842,-0.4478,0.242,-0.4679,0.0825,0.3808,-0.4614,
10:35:05:843,-0.5092,0.0909,-0.5584,0.0825,0.3808,-0.4614,
10:35:05:878,-0.5092,0.0909,-0.5584,0.0825,0.3808,-0.4614,
10:35:05:880,-0.5092,0.0909,-0.5584,0.0825,0.3808,-0.4614,
10:35:05:881,-0.5092,0.0909,-0.5584,0.0825,0.3808,-0.4614,
10:35:05:882,-0.5092,0.0909,-0.5584,0.0825,0.3808,-0.4614,
10:35:05:919,-0.5092,0.0909,-0.5584,0.0971,0.4818,-0.6703,
10:35:05:921,-0.827,-0.7694,-0.0475,0.0971,0.4818,-0.6703,
10:35:05:964,-0.827,-0.7694,-0.0475,0.2784,0.2342,-1.3557,
10:35:05:966,-0.827,-0.7694,-0.0475,0.2784,0.2342,-1.3557,
10:35:05:967,-0.827,-0.7694,-0.0475,0.2784,0.2342,-1.3557,
10:35:05:968,-0.827,-0.7694,-0.0475,0.2784,0.2342,-1.3557,
10:35:05:968,-0.827,-0.7694,-0.0475,0.2784,0.2342,-1.3557,
10:35:05:969,-0.827,-0.7694,-0.0475,0.2784,0.2342,-1.3557,
10:35:05:970,-1.5854,-0.8601,-0.2217,0.2784,0.2342,-1.3557,
10:35:06:016,-1.5854,-0.8601,-0.2217,0.4922,0.3515,-1.9523,
10:35:06:017,-2.548,-2.1495,-0.7258,0.4922,0.3515,-1.9523,
10:35:06:051,-2.548,-2.1495,-0.7258,0.4922,0.3515,-1.9523,
10:35:06:054,-2.548,-2.1495,-0.7258,0.4922,0.3515,-1.9523,
10:35:06:056,-2.548,-2.1495,-0.7258,0.4922,0.3515,-1.9523,
10:35:06:058,-2.548,-2.1495,-0.7258,0.4922,0.3515,-1.9523,
10:35:06:094,-2.548,-2.1495,-0.7258,0.6982,0.4789,-2.9496,
10:35:06:102,-8.0297,-10.89,-5.4024,0.6982,0.4789,-2.9496,
10:35:06:138,-8.0297,-10.89,-5.4024,0.5724,1.1366,-3.8765,
10:35:06:141,-8.0297,-10.89,-5.4024,0.5724,1.1366,-3.8765,
10:35:06:143,-8.0297,-10.89,-5.4024,0.5724,1.1366,-3.8765,
10:35:06:146,-8.0297,-10.89,-5.4024,0.5724,1.1366,-3.8765,
10:35:06:147,-8.0297,-10.89,-5.4024,0.5724,1.1366,-3.8765,
10:35:06:148,-8.0297,-10.89,-5.4024,0.5724,1.1366,-3.8765,
10:35:06:151,-9.8072,-11.9258,-5.957,0.5724,1.1366,-3.8765,
10:35:06:191,-9.8072,-11.9258,-5.957,0.4323,1.4351,-1.8354,
10:35:06:194,-19.2434,-15.5927,-5.0365,0.4323,1.4351,-1.8354,
10:35:06:228,-19.2434,-15.5927,-5.0365,0.4323,1.4351,-1.8354,
10:35:06:231,-19.2434,-15.5927,-5.0365,0.4323,1.4351,-1.8354,
10:35:06:232,-19.2434,-15.5927,-5.0365,0.4323,1.4351,-1.8354,
10:35:06:233,-19.2434,-15.5927,-5.0365,0.4323,1.4351,-1.8354,
10:35:06:269,-19.2434,-15.5927,-5.0365,-0.2229,-0.2313,-0.7778,
10:35:06:271,-14.2439,5.0886,-0.1732,-0.2229,-0.2313,-0.7778,
10:35:06:313,-13.0665,5.8204,0.1516,-0.2229,-0.2313,-0.7778,
10:35:06:315,-13.0665,5.8204,0.1516,-0.5793,-0.2146,2.2345,
10:35:06:316,-13.0665,5.8204,0.1516,-0.5793,-0.2146,2.2345,
10:35:06:318,-13.0665,5.8204,0.1516,-0.5793,-0.2146,2.2345,
10:35:06:319,-13.0665,5.8204,0.1516,-0.5793,-0.2146,2.2345,
10:35:06:320,-13.0665,5.8204,0.1516,-0.5793,-0.2146,2.2345,
10:35:06:321,-13.0665,5.8204,0.1516,-0.5793,-0.2146,2.2345,
10:35:06:365,-13.0665,5.8204,0.1516,-0.9812,-0.1421,4.3017,
10:35:06:367,-4.7324,4.213,0.68,-0.9812,-0.1421,4.3017,
10:35:06:387,-4.7324,4.213,0.68,-0.9812,-0.1421,4.3017,
10:35:06:388,-4.7324,4.213,0.68,-0.9812,-0.1421,4.3017,
10:35:06:390,-4.7324,4.213,0.68,-0.9812,-0.1421,4.3017,
10:35:06:392,-4.7324,4.213,0.68,-0.9812,-0.1421,4.3017,
10:35:06:444,-4.7324,4.213,0.68,-1.0574,-0.5652,5.7148,
10:35:06:446,-1.24,-9.9122,-0.0947,-1.0574,-0.5652,5.7148,
10:35:06:473,-1.24,-9.9122,-0.0947,-1.1368,-1.161,6.7032,
10:35:06:474,2.5037,-10.3808,0.4208,-1.1368,-1.161,6.7032,
10:35:06:476,2.5037,-10.3808,0.4208,-1.1368,-1.161,6.7032,
10:35:06:478,2.5037,-10.3808,0.4208,-1.1368,-1.161,6.7032,
10:35:06:480,2.5037,-10.3808,0.4208,-1.1368,-1.161,6.7032,
10:35:06:481,2.5037,-10.3808,0.4208,-1.1368,-1.161,6.7032,
10:35:06:521,2.5037,-10.3808,0.4208,-0.8961,-1.0295,5.2318,
10:35:06:523,18.8161,-16.9232,-0.7604,-0.8961,-1.0295,5.2318,
10:35:06:562,18.8161,-16.9232,-0.7604,-0.8961,-1.0295,5.2318,
10:35:06:564,18.8161,-16.9232,-0.7604,-0.8961,-1.0295,5.2318,
10:35:06:566,18.8161,-16.9232,-0.7604,-0.8961,-1.0295,5.2318,
10:35:06:568,18.8161,-16.9232,-0.7604,-0.8961,-1.0295,5.2318,
10:35:06:570,18.8161,-16.9232,-0.7604,-0.8961,-1.0295,5.2318,
10:35:06:620,18.8161,-16.9232,-0.7604,-0.3797,-1.2852,-0.9452,
10:35:06:622,5.7077,-7.3807,3.453,-0.3797,-1.2852,-0.9452,
10:35:06:647,5.7077,-7.3807,3.453,-0.0242,-0.6853,-3.3768,
10:35:06:649,5.7077,-7.3807,3.453,-0.0242,-0.6853,-3.3768,
10:35:06:650,5.7077,-7.3807,3.453,-0.0242,-0.6853,-3.3768,
10:35:06:651,5.7077,-7.3807,3.453,-0.0242,-0.6853,-3.3768,
10:35:06:653,5.7077,-7.3807,3.453,-0.0242,-0.6853,-3.3768,
10:35:06:654,4.054,-6.4176,3.2263,-0.0242,-0.6853,-3.3768,
10:35:06:696,4.054,-6.4176,3.2263,-0.172,0.5111,-3.4815,
10:35:06:698,8.9313,-3.0909,0.6207,-0.172,0.5111,-3.4815,
10:35:06:717,8.9313,-3.0909,0.6207,-0.172,0.5111,-3.4815,
10:35:06:719,8.9313,-3.0909,0.6207,-0.172,0.5111,-3.4815,
10:35:06:720,8.9313,-3.0909,0.6207,-0.172,0.5111,-3.4815,
10:35:06:721,8.9313,-3.0909,0.6207,-0.172,0.5111,-3.4815,
10:35:06:773,8.9313,-3.0909,0.6207,-0.1688,0.4244,-1.8224,
10:35:06:775,1.2677,-0.1056,0.3549,-0.1688,0.4244,-1.8224,
10:35:06:804,1.2677,-0.1056,0.3549,-0.1688,0.4244,-1.8224,
10:35:06:806,1.2677,-0.1056,0.3549,-0.1688,0.4244,-1.8224,
10:35:06:807,1.2677,-0.1056,0.3549,-0.1688,0.4244,-1.8224,
10:35:06:807,1.2677,-0.1056,0.3549,-0.1688,0.4244,-1.8224,
10:35:06:851,1.2677,-0.1056,0.3549,0.1069,0.2114,-1.1057,
10:35:06:853,0.007,0.0969,-0.3772,0.1069,0.2114,-1.1057,
10:35:06:891,0.007,0.0969,-0.3772,0.2474,0.2321,-0.6161,
10:35:06:893,-0.3697,0.1099,-0.517,0.2474,0.2321,-0.6161,
10:35:06:894,-0.3697,0.1099,-0.517,0.2474,0.2321,-0.6161,
10:35:06:895,-0.3697,0.1099,-0.517,0.2474,0.2321,-0.6161,
10:35:06:895,-0.3697,0.1099,-0.517,0.2474,0.2321,-0.6161,
10:35:06:896,-0.3697,0.1099,-0.517,0.2474,0.2321,-0.6161,
10:35:06:897,-0.3697,0.1099,-0.517,0.2474,0.2321,-0.6161,
10:35:06:948,-0.3697,0.1099,-0.517,0.2568,0.3189,-0.4064,
10:35:06:950,-0.3813,-0.1575,-0.1159,0.2568,0.3189,-0.4064,
10:35:06:979,-0.3813,-0.1575,-0.1159,0.2568,0.3189,-0.4064,
10:35:06:981,-0.3813,-0.1575,-0.1159,0.2568,0.3189,-0.4064,
10:35:06:982,-0.3813,-0.1575,-0.1159,0.2568,0.3189,-0.4064,
10:35:06:982,-0.3813,-0.1575,-0.1159,0.2568,0.3189,-0.4064,
10:35:07:026,-0.3813,-0.1575,-0.1159,0.2108,0.3873,-0.6606,
10:35:07:028,-0.5843,-0.8711,-0.4346,0.2108,0.3873,-0.6606,
10:35:07:065,-0.5843,-0.8711,-0.4346,0.2539,0.5144,-1.0083,
10:35:07:067,-0.5843,-0.8711,-0.4346,0.2539,0.5144,-1.0083,
10:35:07:068,-0.5843,-0.8711,-0.4346,0.2539,0.5144,-1.0083,
10:35:07:068,-0.5843,-0.8711,-0.4346,0.2539,0.5144,-1.0083,
10:35:07:069,-0.5843,-0.8711,-0.4346,0.2539,0.5144,-1.0083,
10:35:07:070,-0.5843,-0.8711,-0.4346,0.2539,0.5144,-1.0083,
10:35:07:071,-1.1959,-0.9302,-0.6213,0.2539,0.5144,-1.0083,
10:35:07:122,-1.1959,-0.9302,-0.6213,0.5296,0.4362,-2.0468,
10:35:07:124,-2.749,-3.3041,0.4692,0.5296,0.4362,-2.0468,
10:35:07:153,-2.749,-3.3041,0.4692,0.5296,0.4362,-2.0468,
10:35:07:154,-2.749,-3.3041,0.4692,0.5296,0.4362,-2.0468,
10:35:07:155,-2.749,-3.3041,0.4692,0.5296,0.4362,-2.0468,
10:35:07:156,-2.749,-3.3041,0.4692,0.5296,0.4362,-2.0468,
10:35:07:200,-2.749,-3.3041,0.4692,0.9295,0.7241,-3.0486,
10:35:07:202,-9.0079,-13.4982,-9.7684,0.9295,0.7241,-3.0486,
10:35:07:240,-9.0079,-13.4982,-9.7684,0.3846,2.0757,-3.4294,
10:35:07:242,-10.6081,-14.3704,-10.4807,0.3846,2.0757,-3.4294,
10:35:07:244,-10.6081,-14.3704,-10.4807,0.3846,2.0757,-3.4294,
10:35:07:246,-10.6081,-14.3704,-10.4807,0.3846,2.0757,-3.4294,
10:35:07:247,-10.6081,-14.3704,-10.4807,0.3846,2.0757,-3.4294,
10:35:07:248,-10.6081,-14.3704,-10.4807,0.3846,2.0757,-3.4294,
10:35:07:250,-10.6081,-14.3704,-10.4807,0.3846,2.0757,-3.4294,
10:35:07:298,-10.6081,-14.3704,-10.4807,0.0247,2.3942,-1.2388,
10:35:07:301,-12.0177,-4.3152,-4.7147,0.0247,2.3942,-1.2388,
10:35:07:329,-12.0177,-4.3152,-4.7147,0.0247,2.3942,-1.2388,
10:35:07:331,-12.0177,-4.3152,-4.7147,0.0247,2.3942,-1.2388,
10:35:07:333,-12.0177,-4.3152,-4.7147,0.0247,2.3942,-1.2388,
10:35:07:335,-12.0177,-4.3152,-4.7147,0.0247,2.3942,-1.2388,
10:35:07:375,-12.0177,-4.3152,-4.7147,-0.7296,-0.5054,0.4777,
10:35:07:378,-8.8499,5.2695,-2.0422,-0.7296,-0.5054,0.4777,
10:35:07:416,-8.8499,5.2695,-2.0422,-1.1478,-2.2304,2.0138,
10:35:07:418,-8.8499,5.2695,-2.0422,-1.1478,-2.2304,2.0138,
10:35:07:420,-8.8499,5.2695,-2.0422,-1.1478,-2.2304,2.0138,
10:35:07:421,-8.8499,5.2695,-2.0422,-1.1478,-2.2304,2.0138,
10:35:07:421,-8.8499,5.2695,-2.0422,-1.1478,-2.2304,2.0138,
10:35:07:422,-8.8499,5.2695,-2.0422,-1.1478,-2.2304,2.0138,
10:35:07:424,-7.6583,5.8066,-0.7256,-1.1478,-2.2304,2.0138,
10:35:07:472,-7.6583,5.8066,-0.7256,-0.8045,-1.857,4.017,
10:35:07:474,-4.3187,2.7711,1.6418,-0.8045,-1.857,4.017,
10:35:07:488,-4.3187,2.7711,1.6418,-0.8045,-1.857,4.017,
10:35:07:490,-4.3187,2.7711,1.6418,-0.8045,-1.857,4.017,
10:35:07:491,-4.3187,2.7711,1.6418,-0.8045,-1.857,4.017,
10:35:07:531,-4.3187,2.7711,1.6418,-0.6029,-1.2144,5.4863,
10:35:07:533,-1.2143,-1.1603,-0.1264,-0.6029,-1.2144,5.4863,
10:35:07:575,-1.2143,-1.1603,-0.1264,-0.8969,-0.9912,6.4442,
10:35:07:577,-1.2143,-1.1603,-0.1264,-0.8969,-0.9912,6.4442,
10:35:07:578,-1.2143,-1.1603,-0.1264,-0.8969,-0.9912,6.4442,
10:35:07:579,-1.2143,-1.1603,-0.1264,-0.8969,-0.9912,6.4442,
10:35:07:579,-1.2143,-1.1603,-0.1264,-0.8969,-0.9912,6.4442,
10:35:07:580,-1.2143,-1.1603,-0.1264,-0.8969,-0.9912,6.4442,
10:35:07:581,7.3871,-10.447,-0.1242,-0.8969,-0.9912,6.4442,
10:35:07:628,7.3871,-10.447,-0.1242,-0.8212,-1.1134,3.9551,
10:35:07:631,21.4943,-15.6224,-0.3125,-0.8212,-1.1134,3.9551,
10:35:07:662,21.4943,-15.6224,-0.3125,-0.8212,-1.1134,3.9551,
10:35:07:664,21.4943,-15.6224,-0.3125,-0.8212,-1.1134,3.9551,
10:35:07:666,21.4943,-15.6224,-0.3125,-0.8212,-1.1134,3.9551,
10:35:07:667,21.4943,-15.6224,-0.3125,-0.8212,-1.1134,3.9551,
10:35:07:706,21.4943,-15.6224,-0.3125,-0.3907,-0.902,-1.7072,
10:35:07:708,18.4865,-9.4902,1.1957,-0.3907,-0.902,-1.7072,
10:35:07:749,18.4865,-9.4902,1.1957,0.0242,-0.6459,-3.398,
10:35:07:751,0.2787,-3.7013,5.3376,0.0242,-0.6459,-3.398,
10:35:07:752,0.2787,-3.7013,5.3376,0.0242,-0.6459,-3.398,
10:35:07:753,0.2787,-3.7013,5.3376,0.0242,-0.6459,-3.398,
10:35:07:754,0.2787,-3.7013,5.3376,0.0242,-0.6459,-3.398,
10:35:07:755,0.2787,-3.7013,5.3376,0.0242,-0.6459,-3.398,
10:35:07:756,0.2787,-3.7013,5.3376,0.0242,-0.6459,-3.398,
10:35:07:803,0.2787,-3.7013,5.3376,-0.1953,0.3295,-3.1162,
10:35:07:805,8.4109,-3.4605,-0.1726,-0.1953,0.3295,-3.1162,
10:35:07:818,8.4109,-3.4605,-0.1726,-0.1953,0.3295,-3.1162,
10:35:07:820,8.4109,-3.4605,-0.1726,-0.1953,0.3295,-3.1162,
10:35:07:821,8.4109,-3.4605,-0.1726,-0.1953,0.3295,-3.1162,
10:35:07:861,8.4109,-3.4605,-0.1726,-0.0206,0.6585,-1.7348,
10:35:07:864,1.1246,0.2696,0.0986,-0.0206,0.6585,-1.7348,
10:35:07:906,1.1246,0.2696,0.0986,-0.0206,0.6585,-1.7348,
10:35:07:908,1.1246,0.2696,0.0986,-0.0206,0.6585,-1.7348,
10:35:07:910,1.1246,0.2696,0.0986,-0.0206,0.6585,-1.7348,
10:35:07:911,1.1246,0.2696,0.0986,-0.0206,0.6585,-1.7348,
10:35:07:912,1.1246,0.2696,0.0986,-0.0206,0.6585,-1.7348,
10:35:07:959,1.1246,0.2696,0.0986,0.0218,0.1967,-1.1285,
10:35:07:962,0.0383,0.1545,-0.4509,0.0218,0.1967,-1.1285,
10:35:07:992,0.0383,0.1545,-0.4509,0.1468,0.2541,-0.5803,
10:35:07:996,-0.3238,0.1482,-0.537,0.1468,0.2541,-0.5803,
10:35:07:998,-0.3238,0.1482,-0.537,0.1468,0.2541,-0.5803,
10:35:07:999,-0.3238,0.1482,-0.537,0.1468,0.2541,-0.5803,
10:35:08:000,-0.3238,0.1482,-0.537,0.1468,0.2541,-0.5803,
10:35:08:001,-0.3238,0.1482,-0.537,0.1468,0.2541,-0.5803,
10:35:08:035,-0.3238,0.1482,-0.537,0.144,0.3498,-0.4182,
10:35:08:037,-0.0458,0.1793,-0.332,0.144,0.3498,-0.4182,
10:35:08:080,-0.0458,0.1793,-0.332,0.144,0.3498,-0.4182,
10:35:08:082,-0.0458,0.1793,-0.332,0.144,0.3498,-0.4182,
10:35:08:083,-0.0458,0.1793,-0.332,0.144,0.3498,-0.4182,
10:35:08:084,-0.0458,0.1793,-0.332,0.144,0.3498,-0.4182,
10:35:08:085,-0.0458,0.1793,-0.332,0.144,0.3498,-0.4182,
10:35:08:132,-0.0458,0.1793,-0.332,0.1252,0.3971,-0.5428,
10:35:08:134,-1.0833,-1.25,-0.4177,0.1252,0.3971,-0.5428,
10:35:08:149,-1.0833,-1.25,-0.4177,0.1252,0.3971,-0.5428,
10:35:08:151,-1.0833,-1.25,-0.4177,0.1252,0.3971,-0.5428,
10:35:08:151,-1.0833,-1.25,-0.4177,0.1252,0.3971,-0.5428,
10:35:08:191,-1.0833,-1.25,-0.4177,0.2266,0.3779,-1.0751,
10:35:08:194,-2.0346,-3.4727,-0.002,0.2266,0.3779,-1.0751,
10:35:08:232,-2.0346,-3.4727,-0.002,0.5202,0.5115,-2.1083,
10:35:08:234,-3.2042,-3.6957,-0.3663,0.5202,0.5115,-2.1083,
10:35:08:236,-3.2042,-3.6957,-0.3663,0.5202,0.5115,-2.1083,
10:35:08:237,-3.2042,-3.6957,-0.3663,0.5202,0.5115,-2.1083,
10:35:08:238,-3.2042,-3.6957,-0.3663,0.5202,0.5115,-2.1083,
10:35:08:238,-3.2042,-3.6957,-0.3663,0.5202,0.5115,-2.1083,
10:35:08:239,-3.2042,-3.6957,-0.3663,0.5202,0.5115,-2.1083,
10:35:08:288,-3.2042,-3.6957,-0.3663,0.9047,0.8829,-3.0995,
10:35:08:290,-5.8495,-6.2422,-3.9519,0.9047,0.8829,-3.0995,
10:35:08:321,-5.8495,-6.2422,-3.9519,0.9047,0.8829,-3.0995,
10:35:08:323,-5.8495,-6.2422,-3.9519,0.9047,0.8829,-3.0995,
10:35:08:324,-5.8495,-6.2422,-3.9519,0.9047,0.8829,-3.0995,
10:35:08:324,-5.8495,-6.2422,-3.9519,0.9047,0.8829,-3.0995,
10:35:08:366,-5.8495,-6.2422,-3.9519,0.5557,2.1018,-3.7307,
10:35:08:368,-19.5124,-8.7304,-4.7207,0.5557,2.1018,-3.7307,
10:35:08:407,-19.5124,-8.7304,-4.7207,0.1093,2.0362,-1.3036,
10:35:08:409,-19.7441,-9.0977,-5.5034,0.1093,2.0362,-1.3036,
10:35:08:411,-19.7441,-9.0977,-5.5034,0.1093,2.0362,-1.3036,
10:35:08:413,-19.7441,-9.0977,-5.5034,0.1093,2.0362,-1.3036,
10:35:08:414,-19.7441,-9.0977,-5.5034,0.1093,2.0362,-1.3036,
10:35:08:415,-19.7441,-9.0977,-5.5034,0.1093,2.0362,-1.3036,
10:35:08:416,-19.7441,-9.0977,-5.5034,0.1093,2.0362,-1.3036,
10:35:08:463,-19.7441,-9.0977,-5.5034,-0.4258,0.0941,0.2374,
10:35:08:465,-1.6572,5.4382,-0.6348,-0.4258,0.0941,0.2374,
10:35:08:484,-1.6572,5.4382,-0.6348,-0.4258,0.0941,0.2374,
10:35:08:486,-1.6572,5.4382,-0.6348,-0.4258,0.0941,0.2374,
10:35:08:488,-1.6572,5.4382,-0.6348,-0.4258,0.0941,0.2374,
10:35:08:521,-1.6572,5.4382,-0.6348,-0.8306,-2.1168,1.9796,
10:35:08:524,-9.456,5.2968,-0.192,-0.8306,-2.1168,1.9796,
10:35:08:566,-9.456,5.2968,-0.192,-0.6457,-1.6383,4.0789,
10:35:08:568,-9.456,5.2968,-0.192,-0.6457,-1.6383,4.0789,
10:35:08:569,-9.456,5.2968,-0.192,-0.6457,-1.6383,4.0789,
10:35:08:570,-9.456,5.2968,-0.192,-0.6457,-1.6383,4.0789,
10:35:08:570,-9.456,5.2968,-0.192,-0.6457,-1.6383,4.0789,
10:35:08:571,-9.456,5.2968,-0.192,-0.6457,-1.6383,4.0789,
10:35:08:572,-3.7727,3.1722,0.4579,-0.6457,-1.6383,4.0789,
10:35:08:618,-3.7727,3.1722,0.4579,-0.6131,-0.7049,5.5584,
10:35:08:620,-1.5121,-0.0433,-0.7234,-0.6131,-0.7049,5.5584,
10:35:08:648,-1.5121,-0.0433,-0.7234,-0.6131,-0.7049,5.5584,
10:35:08:650,-1.5121,-0.0433,-0.7234,-0.6131,-0.7049,5.5584,
10:35:08:651,-1.5121,-0.0433,-0.7234,-0.6131,-0.7049,5.5584,
10:35:08:652,-1.5121,-0.0433,-0.7234,-0.6131,-0.7049,5.5584,
10:35:08:696,-1.5121,-0.0433,-0.7234,-1.1568,-0.6288,6.5826,
10:35:08:699,5.1252,-9.2203,-0.8959,-1.1568,-0.6288,6.5826,
10:35:08:735,5.1252,-9.2203,-0.8959,-1.1568,-0.6288,6.5826,
10:35:08:738,5.1252,-9.2203,-0.8959,-1.1568,-0.6288,6.5826,
10:35:08:739,5.1252,-9.2203,-0.8959,-1.1568,-0.6288,6.5826,
10:35:08:740,5.1252,-9.2203,-0.8959,-1.1568,-0.6288,6.5826,
10:35:08:774,5.1252,-9.2203,-0.8959,-0.914,-0.9525,5.0062,
10:35:08:777,20.3672,-11.8684,1.1687,-0.914,-0.9525,5.0062,
10:35:08:810,20.3672,-11.8684,1.1687,-0.6656,-1.2966,-1.2865,
10:35:08:814,19.6797,-11.3913,1.0327,-0.6656,-1.2966,-1.2865,
10:35:08:816,19.6797,-11.3913,1.0327,-0.6656,-1.2966,-1.2865,
10:35:08:818,19.6797,-11.3913,1.0327,-0.6656,-1.2966,-1.2865,
10:35:08:823,19.6797,-11.3913,1.0327,-0.6656,-1.2966,-1.2865,
10:35:08:825,19.6797,-11.3913,1.0327,-0.6656,-1.2966,-1.2865,
10:35:08:852,19.6797,-11.3913,1.0327,-0.0849,-1.0519,-3.578,
10:35:08:855,2.0283,-3.1337,6.0809,-0.0849,-1.0519,-3.578,
10:35:08:892,2.0283,-3.1337,6.0809,-0.0849,-1.0519,-3.578,
10:35:08:894,2.0283,-3.1337,6.0809,-0.0849,-1.0519,-3.578,
10:35:08:897,2.0283,-3.1337,6.0809,-0.0849,-1.0519,-3.578,
10:35:08:898,2.0283,-3.1337,6.0809,-0.0849,-1.0519,-3.578,
10:35:08:899,2.0283,-3.1337,6.0809,-0.0849,-1.0519,-3.578,
10:35:08:949,2.0283,-3.1337,6.0809,-0.1953,0.4199,-3.3589,
10:35:08:951,2.4598,0.1586,0.3086,-0.1953,0.4199,-3.3589,
10:35:08:979,1.3733,0.2124,0.3592,-0.1953,0.4199,-3.3589,
10:35:08:981,1.3733,0.2124,0.3592,-0.0739,0.5192,-1.8204,
10:35:08:982,1.3733,0.2124,0.3592,-0.0739,0.5192,-1.8204,
10:35:08:982,1.3733,0.2124,0.3592,-0.0739,0.5192,-1.8204,
10:35:08:983,1.3733,0.2124,0.3592,-0.0739,0.5192,-1.8204,
10:35:08:984,1.3733,0.2124,0.3592,-0.0739,0.5192,-1.8204,
10:35:09:026,1.3733,0.2124,0.3592,0.0193,0.1531,-1.067,
10:35:09:029,0.4571,-0.0594,-0.3429,0.0193,0.1531,-1.067,
10:35:09:067,0.4571,-0.0594,-0.3429,0.0193,0.1531,-1.067,
10:35:09:069,0.4571,-0.0594,-0.3429,0.0193,0.1531,-1.067,
10:35:09:071,0.4571,-0.0594,-0.3429,0.0193,0.1531,-1.067,
10:35:09:072,0.4571,-0.0594,-0.3429,0.0193,0.1531,-1.067,
10:35:09:073,0.4571,-0.0594,-0.3429,0.0193,0.1531,-1.067,
10:35:09:124,0.4571,-0.0594,-0.3429,0.0902,0.334,-0.4581,
10:35:09:127,-0.1304,-0.0448,-1.0523,0.0902,0.334,-0.4581,
10:35:09:142,-0.1304,-0.0448,-1.0523,0.0902,0.334,-0.4581,
10:35:09:144,-0.1304,-0.0448,-1.0523,0.0902,0.334,-0.4581,
10:35:09:144,-0.1304,-0.0448,-1.0523,0.0902,0.334,-0.4581,
10:35:09:182,-0.1304,-0.0448,-1.0523,0.166,0.5111,-0.3449,
10:35:09:184,-0.0491,-0.5058,0.7912,0.166,0.5111,-0.3449,
10:35:09:228,-0.0491,-0.5058,0.7912,0.2038,0.2904,-0.7412,
10:35:09:230,-0.4841,-0.5245,0.6484,0.2038,0.2904,-0.7412,
10:35:09:230,-0.4841,-0.5245,0.6484,0.2038,0.2904,-0.7412,
10:35:09:231,-0.4841,-0.5245,0.6484,0.2038,0.2904,-0.7412,
10:35:09:231,-0.4841,-0.5245,0.6484,0.2038,0.2904,-0.7412,
10:35:09:232,-0.4841,-0.5245,0.6484,0.2038,0.2904,-0.7412,
10:35:09:233,-0.4841,-0.5245,0.6484,0.2038,0.2904,-0.7412,
10:35:09:278,-0.4841,-0.5245,0.6484,0.2067,0.3531,-1.1545,
10:35:09:281,-1.1986,-1.1796,-0.6117,0.2067,0.3531,-1.1545,
10:35:09:315,-1.1986,-1.1796,-0.6117,0.2067,0.3531,-1.1545,
10:35:09:317,-1.1986,-1.1796,-0.6117,0.2067,0.3531,-1.1545,
10:35:09:318,-1.1986,-1.1796,-0.6117,0.2067,0.3531,-1.1545,
10:35:09:319,-1.1986,-1.1796,-0.6117,0.2067,0.3531,-1.1545,
10:35:09:356,-1.1986,-1.1796,-0.6117,0.4673,0.3865,-2.1844,
10:35:09:358,-3.5847,-5.6483,-3.6103,0.4673,0.3865,-2.1844,
10:35:09:401,-3.5847,-5.6483,-3.6103,0.7907,0.9012,-2.9814,
10:35:09:403,-5.1008,-6.1812,-4.1595,0.7907,0.9012,-2.9814,
10:35:09:404,-5.1008,-6.1812,-4.1595,0.7907,0.9012,-2.9814,
10:35:09:405,-5.1008,-6.1812,-4.1595,0.7907,0.9012,-2.9814,
10:35:09:406,-5.1008,-6.1812,-4.1595,0.7907,0.9012,-2.9814,
10:35:09:407,-5.1008,-6.1812,-4.1595,0.7907,0.9012,-2.9814,
10:35:09:409,-5.1008,-6.1812,-4.1595,0.7907,0.9012,-2.9814,
10:35:09:453,-5.1008,-6.1812,-4.1595,0.515,2.1274,-3.6554,
10:35:09:455,-9.4218,-13.684,-7.7555,0.515,2.1274,-3.6554,
10:35:09:471,-9.4218,-13.684,-7.7555,0.515,2.1274,-3.6554,
10:35:09:473,-9.4218,-13.684,-7.7555,0.515,2.1274,-3.6554,
10:35:09:475,-9.4218,-13.684,-7.7555,0.515,2.1274,-3.6554,
10:35:09:511,-9.4218,-13.684,-7.7555,0.1436,2.4581,-1.2213,
10:35:09:513,-20.1499,-10.6271,-5.7015,0.1436,2.4581,-1.2213,
10:35:09:558,-20.1499,-10.6271,-5.7015,-0.3325,0.1808,-0.0204,
10:35:09:560,-20.1499,-10.6271,-5.7015,-0.3325,0.1808,-0.0204,
10:35:09:563,-20.1499,-10.6271,-5.7015,-0.3325,0.1808,-0.0204,
10:35:09:564,-20.1499,-10.6271,-5.7015,-0.3325,0.1808,-0.0204,
10:35:09:565,-20.1499,-10.6271,-5.7015,-0.3325,0.1808,-0.0204,
10:35:09:566,-20.1499,-10.6271,-5.7015,-0.3325,0.1808,-0.0204,
10:35:09:567,0.0899,5.2188,-0.9027,-0.3325,0.1808,-0.0204,
10:35:09:609,0.0899,5.2188,-0.9027,-0.6921,-2.375,1.8073,
10:35:09:612,-10.0237,5.3226,-0.5994,-0.6921,-2.375,1.8073,
10:35:09:646,-10.0237,5.3226,-0.5994,-0.6921,-2.375,1.8073,
10:35:09:648,-10.0237,5.3226,-0.5994,-0.6921,-2.375,1.8073,
10:35:09:650,-10.0237,5.3226,-0.5994,-0.6921,-2.375,1.8073,
10:35:09:654,-10.0237,5.3226,-0.5994,-0.6921,-2.375,1.8073,
10:35:09:686,-10.0237,5.3226,-0.5994,-0.5781,-2.0508,3.9026,
10:35:09:688,-3.5443,3.1621,-0.5322,-0.5781,-2.0508,3.9026,
10:35:09:732,-3.5443,3.1621,-0.5322,-0.5508,-1.1085,5.3125,
10:35:09:734,-3.5443,3.1621,-0.5322,-0.5508,-1.1085,5.3125,
10:35:09:734,-3.5443,3.1621,-0.5322,-0.5508,-1.1085,5.3125,
10:35:09:735,-3.5443,3.1621,-0.5322,-0.5508,-1.1085,5.3125,
10:35:09:736,-3.5443,3.1621,-0.5322,-0.5508,-1.1085,5.3125,
10:35:09:737,-3.5443,3.1621,-0.5322,-0.5508,-1.1085,5.3125,
10:35:09:737,-1.4023,-0.0755,-1.2882,-0.5508,-1.1085,5.3125,
10:35:09:784,-1.4023,-0.0755,-1.2882,-1.0786,-0.746,6.4039,
10:35:09:786,4.4684,-7.5905,-1.201,-1.0786,-0.746,6.4039,
10:35:09:802,4.4684,-7.5905,-1.201,-1.0786,-0.746,6.4039,
10:35:09:808,4.4684,-7.5905,-1.201,-1.0786,-0.746,6.4039,
10:35:09:809,4.4684,-7.5905,-1.201,-1.0786,-0.746,6.4039,
10:35:09:842,4.4684,-7.5905,-1.201,-0.9275,-0.8768,5.295,
10:35:09:844,17.1717,-16.9427,-0.419,-0.9275,-0.8768,5.295,
10:35:09:890,17.1717,-16.9427,-0.419,-0.9275,-0.8768,5.295,
10:35:09:893,17.1717,-16.9427,-0.419,-0.9275,-0.8768,5.295,
10:35:09:896,17.1717,-16.9427,-0.419,-0.9275,-0.8768,5.295,
10:35:09:898,17.1717,-16.9427,-0.419,-0.9275,-0.8768,5.295,
10:35:09:900,17.1717,-16.9427,-0.419,-0.9275,-0.8768,5.295,
10:35:09:939,17.1717,-16.9427,-0.419,-0.5365,-1.3435,-1.1268,
10:35:09:941,-3.3336,-5.1174,1.4179,-0.5365,-1.3435,-1.1268,
10:35:09:973,-3.3336,-5.1174,1.4179,-0.3948,-0.9501,-2.7758,
10:35:09:975,-4.4383,-4.4015,1.3369,-0.3948,-0.9501,-2.7758,
10:35:09:976,-4.4383,-4.4015,1.3369,-0.3948,-0.9501,-2.7758,
10:35:09:977,-4.4383,-4.4015,1.3369,-0.3948,-0.9501,-2.7758,
10:35:09:978,-4.4383,-4.4015,1.3369,-0.3948,-0.9501,-2.7758,
10:35:09:980,-4.4383,-4.4015,1.3369,-0.3948,-0.9501,-2.7758,
10:35:10:017,-4.4383,-4.4015,1.3369,-0.1289,0.0061,-3.1663,
10:35:10:018,12.1039,-5.3956,1.5803,-0.1289,0.0061,-3.1663,
